File: CV data/012615_KM_o2 purge_0mmhg.txt
EXPLAIN
TAG	CV
TITLE	LABEL	Cyclic Voltammetry	Test &Identifier
DATE	LABEL	1/26/2015	Date
TIME	LABEL	15:11:37	Time
NOTES	NOTES	1	&Notes...

PSTAT	PSTAT	IFC1000-06010	Potentiostat
VINIT	POTEN	1.00000E+000	F	Initial &E (V)
VLIMIT1	POTEN	-8.00000E-001	F	Scan Limit &1 (V)
VLIMIT2	POTEN	1.00000E+000	F	Scan Limit &2 (V)
VFINAL	POTEN	-8.00000E-001	F	Final &E (V)
SCANRATE	QUANT	4.99999E+001	&Scan Rate (mV/s)
STEPSIZE	QUANT	2.00000E+000	St&ep Size (mV)
CYCLES	IQUANT	10	C&ycles (#)
IMODE	SELECTOR	0	I/E Range &Mode
IRANGE	QUANT	1.00000E+001	&Max Current (mA)
AREA	QUANT	1.00000E+000	Electrode &Area (cm^2)
ELECTRODETYPE	SELECTOR	0	Electrode Type
STRIPPING	TOGGLE	F	Used for Stripping
POLARITY	TOGGLE	F	Signal Polarity
CONDIT	TWOPARAM	F	1.50000E+001	0.00000E+000	Conditionin&g	Time(s)	E(V)
DELAY	TWOPARAM	T	2.00000E+001	0.00000E+000	Init. De&lay	Time(s)	Stab.(mV/s)
EQDELAY	QUANT	5.00000E+000	Equil. &Time (s)
IRCOMP	SELECTOR	1	IRCom&p
PFCOR	QUANT	5.00000E+001	PF Corr. (ohm)
SAMPLINGMODE	SELECTOR	1	Sampling &Mode
OCVCURVE	TABLE	77
	Pt	T	Vf	Vm	Ach	Over
	#	s	V vs. Ref.	V	V	bits
	0	0.258333	3.66723E-001	3.66723E-001	0.00000E+000	...........
	1	0.516667	3.66719E-001	3.66539E-001	0.00000E+000	...........
	2	0.775	3.66698E-001	3.66364E-001	0.00000E+000	...........
	3	1.03333	3.66637E-001	3.66189E-001	0.00000E+000	...........
	4	1.29167	3.66526E-001	3.66003E-001	0.00000E+000	...........
	5	1.55	3.66376E-001	3.65843E-001	0.00000E+000	...........
	6	1.80833	3.66206E-001	3.65674E-001	0.00000E+000	...........
	7	2.06667	3.66031E-001	3.65508E-001	0.00000E+000	...........
	8	2.325	3.65857E-001	3.65332E-001	0.00000E+000	...........
	9	2.58333	3.65687E-001	3.65172E-001	0.00000E+000	...........
	10	2.84167	3.65519E-001	3.65030E-001	0.00000E+000	...........
	11	3.1	3.65354E-001	3.64874E-001	0.00000E+000	...........
	12	3.35833	3.65194E-001	3.64725E-001	0.00000E+000	...........
	13	3.61667	3.65039E-001	3.64580E-001	0.00000E+000	...........
	14	3.875	3.64887E-001	3.64418E-001	0.00000E+000	...........
	15	4.13333	3.64737E-001	3.64272E-001	0.00000E+000	...........
	16	4.39167	3.64586E-001	3.64128E-001	0.00000E+000	...........
	17	4.65	3.64435E-001	3.63980E-001	0.00000E+000	...........
	18	4.90833	3.64286E-001	3.63838E-001	0.00000E+000	...........
	19	5.16667	3.64139E-001	3.63701E-001	0.00000E+000	...........
	20	5.425	3.63994E-001	3.63557E-001	0.00000E+000	...........
	21	5.68333	3.63851E-001	3.63419E-001	0.00000E+000	...........
	22	5.94167	3.63710E-001	3.63292E-001	0.00000E+000	...........
	23	6.2	3.63571E-001	3.63153E-001	0.00000E+000	...........
	24	6.45833	3.63434E-001	3.63018E-001	0.00000E+000	...........
	25	6.71667	3.63299E-001	3.62885E-001	0.00000E+000	...........
	26	6.975	3.63164E-001	3.62754E-001	0.00000E+000	...........
	27	7.23333	3.63030E-001	3.62636E-001	0.00000E+000	...........
	28	7.49167	3.62898E-001	3.62502E-001	0.00000E+000	...........
	29	7.75	3.62769E-001	3.62371E-001	0.00000E+000	...........
	30	8.00833	3.62641E-001	3.62246E-001	0.00000E+000	...........
	31	8.26667	3.62512E-001	3.62110E-001	0.00000E+000	...........
	32	8.525	3.62383E-001	3.61994E-001	0.00000E+000	...........
	33	8.78333	3.62255E-001	3.61881E-001	0.00000E+000	...........
	34	9.04167	3.62129E-001	3.61758E-001	0.00000E+000	...........
	35	9.3	3.62006E-001	3.61633E-001	0.00000E+000	...........
	36	9.5583	3.61886E-001	3.61517E-001	0.00000E+000	...........
	37	9.8167	3.61766E-001	3.61401E-001	0.00000E+000	...........
	38	10.075	3.61646E-001	3.61295E-001	0.00000E+000	...........
	39	10.3333	3.61528E-001	3.61158E-001	0.00000E+000	...........
	40	10.5917	3.61411E-001	3.61047E-001	0.00000E+000	...........
	41	10.85	3.61294E-001	3.60930E-001	0.00000E+000	...........
	42	11.1083	3.61175E-001	3.60819E-001	0.00000E+000	...........
	43	11.3667	3.61058E-001	3.60706E-001	0.00000E+000	...........
	44	11.625	3.60942E-001	3.60595E-001	0.00000E+000	...........
	45	11.8833	3.60828E-001	3.60494E-001	0.00000E+000	...........
	46	12.1417	3.60716E-001	3.60382E-001	0.00000E+000	...........
	47	12.4	3.60607E-001	3.60272E-001	0.00000E+000	...........
	48	12.6583	3.60498E-001	3.60158E-001	0.00000E+000	...........
	49	12.9167	3.60390E-001	3.60055E-001	0.00000E+000	...........
	50	13.175	3.60281E-001	3.59965E-001	0.00000E+000	...........
	51	13.4333	3.60173E-001	3.59842E-001	0.00000E+000	...........
	52	13.6917	3.60067E-001	3.59734E-001	0.00000E+000	...........
	53	13.95	3.59961E-001	3.59632E-001	0.00000E+000	...........
	54	14.2083	3.59854E-001	3.59540E-001	0.00000E+000	...........
	55	14.4667	3.59748E-001	3.59425E-001	0.00000E+000	...........
	56	14.725	3.59644E-001	3.59326E-001	0.00000E+000	...........
	57	14.9833	3.59540E-001	3.59211E-001	0.00000E+000	...........
	58	15.2417	3.59435E-001	3.59106E-001	0.00000E+000	...........
	59	15.5	3.59329E-001	3.59004E-001	0.00000E+000	...........
	60	15.7583	3.59223E-001	3.58889E-001	0.00000E+000	...........
	61	16.0167	3.59116E-001	3.58787E-001	0.00000E+000	...........
	62	16.275	3.59009E-001	3.58682E-001	0.00000E+000	...........
	63	16.5333	3.58902E-001	3.58590E-001	0.00000E+000	...........
	64	16.7917	3.58797E-001	3.58487E-001	0.00000E+000	...........
	65	17.05	3.58695E-001	3.58391E-001	0.00000E+000	...........
	66	17.3083	3.58595E-001	3.58314E-001	0.00000E+000	...........
	67	17.5667	3.58499E-001	3.58212E-001	0.00000E+000	...........
	68	17.825	3.58405E-001	3.58123E-001	0.00000E+000	...........
	69	18.0833	3.58313E-001	3.58040E-001	0.00000E+000	...........
	70	18.3417	3.58223E-001	3.57939E-001	0.00000E+000	...........
	71	18.6	3.58132E-001	3.57845E-001	0.00000E+000	...........
	72	18.8583	3.58040E-001	3.57755E-001	0.00000E+000	...........
	73	19.1167	3.57948E-001	3.57663E-001	0.00000E+000	...........
	74	19.375	3.57855E-001	3.57585E-001	0.00000E+000	...........
	75	19.6333	3.57764E-001	3.57490E-001	0.00000E+000	...........
	76	19.8917	3.57675E-001	3.57409E-001	0.00000E+000	...........
EOC	QUANT	0.3576746	Open Circuit (V)
PSTATMODEL	IQUANT	48	Pstat Model
PSTATSECTION	LABEL	IFC1000-06010	Pstat Section
PSTATSERIALNO	LABEL	06010	Pstat Serial Number
CTRLMODE	IQUANT	1	Control Mode
IESTAB	IQUANT	2	I/E Stability
CASPEED	IQUANT	2	Control Amp Speed
CONVENTION	IQUANT	1	Current Convention
ICHRANGE	IQUANT	2	Ich Range
ICHRANGEMODE	TOGGLE	F	Ich Auto Range
ICHOFFSETENABLE	TOGGLE	F	Ich Offset Enable
ICHOFFSET	QUANT	0	Ich Offset (V)
ICHFILTER	IQUANT	3	Ich Filter
VCHRANGE	IQUANT	2	Vch Range
VCHRANGEMODE	TOGGLE	F	Vch Auto Range
VCHOFFSETENABLE	TOGGLE	F	Vch Offset Enable
VCHOFFSET	QUANT	0	Vch Offset (V)
VCHFILTER	IQUANT	3	Vch Filter
IERANGELOWERLIMIT	IQUANT	4	I/E Range Lower Limit
IERANGEMODE	TOGGLE	T	I/E AutoRange
IERANGE	IQUANT	11	I/E Range
ACHSELECT	IQUANT	4	Ach Select
CABLEID	IQUANT	14	Cable ID
DCCALDATE	LABEL	9/18/2014	DC Calibration Date
ACCALDATE	LABEL	9/18/2014	AC Calibration Date
FRAMEWORKVERSION	QUANT	6.25	Framework Version
INSTRUMENTVERSION	LABEL	3.26	Instrument Version
CURVE1	TABLE
	Pt	T	Vf	Im	Vu	Sig	Ach	IERange	Over
	#	s	V vs. Ref.	A	V	V	V	#	bits
	0	0.04	9.99900E-001	6.49409E-005	0.00000E+000	9.99985E-001	0.00000E+000	11	...........
	4	0.2	9.91880E-001	5.11221E-005	0.00000E+000	9.91981E-001	0.00000E+000	8	...........
	8	0.36	9.83873E-001	4.23554E-005	0.00000E+000	9.83977E-001	0.00000E+000	8	...........
	12	0.52	9.75942E-001	3.51562E-005	0.00000E+000	9.76022E-001	0.00000E+000	8	...........
	16	0.68	9.67907E-001	2.96721E-005	0.00000E+000	9.68018E-001	0.00000E+000	8	...........
	20	0.84	9.59909E-001	2.47003E-005	0.00000E+000	9.60014E-001	0.00000E+000	8	...........
	24	1	9.51921E-001	2.08467E-005	0.00000E+000	9.52010E-001	0.00000E+000	8	...........
	28	1.16	9.43917E-001	1.76017E-005	0.00000E+000	9.44006E-001	0.00000E+000	8	...........
	32	1.32	9.35912E-001	1.46106E-005	0.00000E+000	9.36002E-001	0.00000E+000	8	...........
	36	1.48	9.27900E-001	1.24375E-005	0.00000E+000	9.27998E-001	0.00000E+000	8	...........
	40	1.64	9.19883E-001	1.02499E-005	0.00000E+000	9.19994E-001	0.00000E+000	8	...........
	44	1.8	9.11913E-001	8.65875E-006	0.00000E+000	9.11990E-001	0.00000E+000	8	...........
	48	1.96	9.03917E-001	7.29648E-006	0.00000E+000	9.03986E-001	0.00000E+000	8	...........
	52	2.12	8.95847E-001	2.98643E-006	0.00000E+000	8.95981E-001	0.00000E+000	7	.....h.....
	56	2.28	8.87867E-001	2.32339E-006	0.00000E+000	8.87977E-001	0.00000E+000	7	.....h.....
	60	2.44	8.79907E-001	6.57433E-007	0.00000E+000	8.80023E-001	0.00000E+000	7	.....h.....
	64	2.6	8.71938E-001	2.65887E-007	0.00000E+000	8.72019E-001	0.00000E+000	7	.....h.....
	68	2.76	8.63891E-001	-9.26846E-007	0.00000E+000	8.64015E-001	0.00000E+000	7	.....h.....
	72	2.92	8.55912E-001	-1.71853E-006	0.00000E+000	8.56011E-001	0.00000E+000	7	.....h.....
	76	3.08	8.47901E-001	-2.05548E-006	0.00000E+000	8.48007E-001	0.00000E+000	7	.....h.....
	80	3.24	8.39890E-001	-3.33967E-006	0.00000E+000	8.40003E-001	0.00000E+000	7	.....h.....
	84	3.4	8.31899E-001	-3.51344E-006	0.00000E+000	8.31999E-001	0.00000E+000	7	...........
	88	3.56	8.23898E-001	-4.42787E-006	0.00000E+000	8.23995E-001	0.00000E+000	7	...........
	92	3.72	8.15896E-001	-5.09497E-006	0.00000E+000	8.15991E-001	0.00000E+000	7	...........
	96	3.88	8.07912E-001	-5.13845E-006	0.00000E+000	8.07986E-001	0.00000E+000	7	...........
	100	4.04	7.99895E-001	-6.42950E-006	0.00000E+000	7.99982E-001	0.00000E+000	7	...........
	104	4.2	7.91914E-001	-3.98306E-006	0.00000E+000	7.91978E-001	0.00000E+000	8	...........
	108	4.36	7.83948E-001	-7.08626E-006	0.00000E+000	7.84024E-001	0.00000E+000	7	....ih.....
	112	4.52	7.75948E-001	-7.83626E-006	0.00000E+000	7.76020E-001	0.00000E+000	7	....ih.....
	116	4.68	7.67934E-001	-5.35588E-006	0.00000E+000	7.68016E-001	0.00000E+000	8	...........
	120	4.84	7.59951E-001	-5.87552E-006	0.00000E+000	7.60012E-001	0.00000E+000	8	...........
	124	5	7.51953E-001	-6.38367E-006	0.00000E+000	7.52008E-001	0.00000E+000	8	...........
	128	5.16	7.43956E-001	-6.69442E-006	0.00000E+000	7.44004E-001	0.00000E+000	8	...........
	132	5.32	7.35938E-001	-7.45512E-006	0.00000E+000	7.36000E-001	0.00000E+000	8	...........
	136	5.48	7.27936E-001	-7.57091E-006	0.00000E+000	7.27995E-001	0.00000E+000	8	...........
	140	5.64	7.19950E-001	-8.23941E-006	0.00000E+000	7.19991E-001	0.00000E+000	8	...........
	144	5.8	7.11953E-001	-8.63086E-006	0.00000E+000	7.11987E-001	0.00000E+000	8	...........
	148	5.96	7.03947E-001	-8.95079E-006	0.00000E+000	7.03983E-001	0.00000E+000	8	...........
	152	6.12	6.95954E-001	-9.71798E-006	0.00000E+000	6.95979E-001	0.00000E+000	8	...........
	156	6.28	6.87991E-001	-9.82590E-006	0.00000E+000	6.88025E-001	0.00000E+000	8	...........
	160	6.44	6.80009E-001	-1.04408E-005	0.00000E+000	6.80021E-001	0.00000E+000	8	...........
	164	6.6	6.71981E-001	-1.09061E-005	0.00000E+000	6.72017E-001	0.00000E+000	8	...........
	168	6.76	6.63967E-001	-1.11881E-005	0.00000E+000	6.64013E-001	0.00000E+000	8	...........
	172	6.92	6.55972E-001	-1.20748E-005	0.00000E+000	6.56009E-001	0.00000E+000	8	...........
	176	7.08	6.47979E-001	-1.22189E-005	0.00000E+000	6.48004E-001	0.00000E+000	8	...........
	180	7.24	6.39961E-001	-1.29497E-005	0.00000E+000	6.40000E-001	0.00000E+000	8	...........
	184	7.4	6.31979E-001	-1.35373E-005	0.00000E+000	6.31996E-001	0.00000E+000	8	...........
	188	7.56	6.23962E-001	-1.37046E-005	0.00000E+000	6.23992E-001	0.00000E+000	8	...........
	192	7.72	6.15967E-001	-1.46073E-005	0.00000E+000	6.15988E-001	0.00000E+000	8	...........
	196	7.88	6.07955E-001	-1.48911E-005	0.00000E+000	6.07984E-001	0.00000E+000	8	...........
	200	8.04	5.99956E-001	-1.55974E-005	0.00000E+000	5.99980E-001	0.00000E+000	8	...........
	204	8.2	5.92009E-001	-1.61582E-005	0.00000E+000	5.92026E-001	0.00000E+000	8	...........
	208	8.36	5.83983E-001	-1.64654E-005	0.00000E+000	5.84022E-001	0.00000E+000	8	...........
	212	8.52	5.75980E-001	-1.74710E-005	0.00000E+000	5.76018E-001	0.00000E+000	8	...........
	216	8.68	5.67981E-001	-1.77754E-005	0.00000E+000	5.68013E-001	0.00000E+000	8	...........
	220	8.84	5.59971E-001	-1.85694E-005	0.00000E+000	5.60009E-001	0.00000E+000	8	...........
	224	9	5.51970E-001	-1.92864E-005	0.00000E+000	5.52005E-001	0.00000E+000	8	...........
	228	9.16	5.43964E-001	-1.96894E-005	0.00000E+000	5.44001E-001	0.00000E+000	8	...........
	232	9.32	5.35951E-001	-2.07652E-005	0.00000E+000	5.35997E-001	0.00000E+000	8	...........
	236	9.48	5.27962E-001	-2.11917E-005	0.00000E+000	5.27993E-001	0.00000E+000	8	...........
	240	9.64	5.19958E-001	-2.21426E-005	0.00000E+000	5.19989E-001	0.00000E+000	8	...........
	244	9.8	5.11918E-001	-2.30018E-005	0.00000E+000	5.11985E-001	0.00000E+000	8	...........
	248	9.96	5.03955E-001	-2.35110E-005	0.00000E+000	5.03981E-001	0.00000E+000	8	...........
	252	10.12	4.95935E-001	-2.46300E-005	0.00000E+000	4.95977E-001	0.00000E+000	8	...........
	256	10.28	4.88003E-001	-2.51888E-005	0.00000E+000	4.88023E-001	0.00000E+000	8	...........
	260	10.44	4.79982E-001	-2.62442E-005	0.00000E+000	4.80018E-001	0.00000E+000	8	...........
	264	10.6	4.71981E-001	-2.73672E-005	0.00000E+000	4.72014E-001	0.00000E+000	8	...........
	268	10.76	4.63988E-001	-2.80561E-005	0.00000E+000	4.64010E-001	0.00000E+000	8	...........
	272	10.92	4.55973E-001	-2.92673E-005	0.00000E+000	4.56006E-001	0.00000E+000	8	...........
	276	11.08	4.47966E-001	-3.01503E-005	0.00000E+000	4.48002E-001	0.00000E+000	8	...........
	280	11.24	4.39980E-001	-3.13213E-005	0.00000E+000	4.39998E-001	0.00000E+000	8	...........
	284	11.4	4.31961E-001	-3.26021E-005	0.00000E+000	4.31994E-001	0.00000E+000	8	...........
	288	11.56	4.23974E-001	-3.36041E-005	0.00000E+000	4.23990E-001	0.00000E+000	8	...........
	292	11.72	4.15956E-001	-3.52910E-005	0.00000E+000	4.15986E-001	0.00000E+000	8	...........
	296	11.88	4.07950E-001	-3.62793E-005	0.00000E+000	4.07982E-001	0.00000E+000	8	...........
	300	12.04	3.99939E-001	-3.76597E-005	0.00000E+000	3.99977E-001	0.00000E+000	8	...........
	304	12.2	3.91989E-001	-3.92742E-005	0.00000E+000	3.92023E-001	0.00000E+000	8	...........
	308	12.36	3.83984E-001	-4.06244E-005	0.00000E+000	3.84019E-001	0.00000E+000	8	...........
	312	12.52	3.75993E-001	-4.25410E-005	0.00000E+000	3.76015E-001	0.00000E+000	8	...........
	316	12.68	3.67969E-001	-4.39976E-005	0.00000E+000	3.68011E-001	0.00000E+000	8	...........
	320	12.84	3.59986E-001	-4.58656E-005	0.00000E+000	3.60007E-001	0.00000E+000	8	...........
	324	13	3.51964E-001	-4.79656E-005	0.00000E+000	3.52003E-001	0.00000E+000	8	...........
	328	13.16	3.43964E-001	-4.96871E-005	0.00000E+000	3.43999E-001	0.00000E+000	8	...........
	332	13.32	3.35968E-001	-5.22950E-005	0.00000E+000	3.35995E-001	0.00000E+000	8	...........
	336	13.48	3.27951E-001	-5.43445E-005	0.00000E+000	3.27991E-001	0.00000E+000	8	...........
	340	13.64	3.19936E-001	-5.69492E-005	0.00000E+000	3.19986E-001	0.00000E+000	8	...........
	344	13.8	3.11957E-001	-5.97185E-005	0.00000E+000	3.11982E-001	0.00000E+000	8	...........
	348	13.96	3.03944E-001	-6.23012E-005	0.00000E+000	3.03978E-001	0.00000E+000	8	...........
	352	14.12	2.96007E-001	-6.56862E-005	0.00000E+000	2.96024E-001	0.00000E+000	8	...........
	356	14.28	2.87998E-001	-6.88932E-005	0.00000E+000	2.88020E-001	0.00000E+000	8	...........
	360	14.44	2.79984E-001	-7.25852E-005	0.00000E+000	2.80016E-001	0.00000E+000	8	...........
	364	14.6	2.72008E-001	-7.69633E-005	0.00000E+000	2.72012E-001	0.00000E+000	8	...........
	368	14.76	2.63988E-001	-8.09000E-005	0.00000E+000	2.64008E-001	0.00000E+000	8	...........
	372	14.92	2.55972E-001	-8.61435E-005	0.00000E+000	2.56004E-001	0.00000E+000	8	...........
	376	15.08	2.47971E-001	-9.16604E-005	0.00000E+000	2.48000E-001	0.00000E+000	9	...........
	380	15.24	2.39960E-001	-9.76614E-005	0.00000E+000	2.39995E-001	0.00000E+000	9	...........
	384	15.4	2.31977E-001	-1.04369E-004	0.00000E+000	2.31991E-001	0.00000E+000	9	...........
	388	15.56	2.23949E-001	-1.11419E-004	0.00000E+000	2.23987E-001	0.00000E+000	9	...........
	392	15.72	2.15945E-001	-1.20094E-004	0.00000E+000	2.15983E-001	0.00000E+000	9	...........
	396	15.88	2.07957E-001	-1.29305E-004	0.00000E+000	2.07979E-001	0.00000E+000	9	...........
	400	16.04	1.99996E-001	-1.39740E-004	0.00000E+000	2.00025E-001	0.00000E+000	9	...........
	404	16.2	1.91960E-001	-1.52385E-004	0.00000E+000	1.92021E-001	0.00000E+000	9	...........
	408	16.36	1.83990E-001	-1.66343E-004	0.00000E+000	1.84017E-001	0.00000E+000	9	...........
	412	16.52	1.75969E-001	-1.83406E-004	0.00000E+000	1.76013E-001	0.00000E+000	9	...........
	416	16.68	1.67972E-001	-2.02789E-004	0.00000E+000	1.68009E-001	0.00000E+000	9	...........
	420	16.84	1.59969E-001	-2.25933E-004	0.00000E+000	1.60005E-001	0.00000E+000	9	...........
	424	17	1.51947E-001	-2.53968E-004	0.00000E+000	1.52000E-001	0.00000E+000	9	...........
	428	17.16	1.43955E-001	-2.86986E-004	0.00000E+000	1.43996E-001	0.00000E+000	9	...........
	432	17.32	1.35948E-001	-3.27769E-004	0.00000E+000	1.35992E-001	0.00000E+000	9	...........
	436	17.48	1.27943E-001	-3.76761E-004	0.00000E+000	1.27988E-001	0.00000E+000	9	...........
	440	17.64	1.19940E-001	-4.36529E-004	0.00000E+000	1.19984E-001	0.00000E+000	9	...........
	444	17.8	1.11929E-001	-5.08716E-004	0.00000E+000	1.11980E-001	0.00000E+000	9	...........
	448	17.96	1.04006E-001	-5.92093E-004	0.00000E+000	1.04026E-001	0.00000E+000	9	...........
	452	18.12	9.59739E-002	-6.88525E-004	0.00000E+000	9.60217E-002	0.00000E+000	9	...........
	456	18.28	8.79758E-002	-7.91319E-004	0.00000E+000	8.80176E-002	0.00000E+000	9	...........
	460	18.44	7.99823E-002	-8.92950E-004	0.00000E+000	8.00135E-002	0.00000E+000	9	...........
	464	18.6	7.19660E-002	-9.79606E-004	0.00000E+000	7.20094E-002	0.00000E+000	10	...........
	468	18.76	6.39515E-002	-1.04411E-003	0.00000E+000	6.40053E-002	0.00000E+000	10	...........
	472	18.92	5.59695E-002	-1.08032E-003	0.00000E+000	5.60012E-002	0.00000E+000	10	...........
	476	19.08	4.79402E-002	-1.08643E-003	0.00000E+000	4.79971E-002	0.00000E+000	10	...........
	480	19.24	3.99494E-002	-1.06840E-003	0.00000E+000	3.99930E-002	0.00000E+000	10	...........
	484	19.4	3.19381E-002	-1.03300E-003	0.00000E+000	3.19889E-002	0.00000E+000	10	...........
	488	19.56	2.39239E-002	-9.85078E-004	0.00000E+000	2.39848E-002	0.00000E+000	10	...........
	492	19.72	1.59408E-002	-9.31695E-004	0.00000E+000	1.59808E-002	0.00000E+000	10	...........
	496	19.88	7.97813E-003	-8.73733E-004	0.00000E+000	8.02667E-003	0.00000E+000	10	...........
	500	20.04	-2.27187E-005	-8.16898E-004	0.00000E+000	2.25753E-005	0.00000E+000	10	...........
	504	20.2	-8.03963E-003	-7.63390E-004	0.00000E+000	-7.98152E-003	0.00000E+000	9	...........
	508	20.36	-1.60424E-002	-7.08192E-004	0.00000E+000	-1.59856E-002	0.00000E+000	9	...........
	512	20.52	-2.40417E-002	-6.55055E-004	0.00000E+000	-2.39897E-002	0.00000E+000	9	...........
	516	20.68	-3.20591E-002	-6.03787E-004	0.00000E+000	-3.19938E-002	0.00000E+000	9	...........
	520	20.84	-4.00683E-002	-5.55685E-004	0.00000E+000	-3.99979E-002	0.00000E+000	9	...........
	524	21	-4.80437E-002	-5.11752E-004	0.00000E+000	-4.80020E-002	0.00000E+000	9	...........
	528	21.16	-5.60769E-002	-4.70674E-004	0.00000E+000	-5.60061E-002	0.00000E+000	9	...........
	532	21.32	-6.40810E-002	-4.34320E-004	0.00000E+000	-6.40102E-002	0.00000E+000	9	...........
	536	21.48	-7.20713E-002	-4.00948E-004	0.00000E+000	-7.20143E-002	0.00000E+000	9	...........
	540	21.64	-8.00959E-002	-3.71072E-004	0.00000E+000	-8.00184E-002	0.00000E+000	9	...........
	544	21.8	-8.80855E-002	-3.44990E-004	0.00000E+000	-8.80225E-002	0.00000E+000	9	...........
	548	21.96	-9.60417E-002	-3.21012E-004	0.00000E+000	-9.59766E-002	0.00000E+000	9	...........
	552	22.12	-1.04061E-001	-3.01039E-004	0.00000E+000	-1.03981E-001	0.00000E+000	9	...........
	556	22.28	-1.12048E-001	-2.82784E-004	0.00000E+000	-1.11985E-001	0.00000E+000	9	...........
	560	22.44	-1.20048E-001	-2.66903E-004	0.00000E+000	-1.19989E-001	0.00000E+000	9	...........
	564	22.6	-1.28068E-001	-2.53630E-004	0.00000E+000	-1.27993E-001	0.00000E+000	9	...........
	568	22.76	-1.36046E-001	-2.40742E-004	0.00000E+000	-1.35997E-001	0.00000E+000	9	...........
	572	22.92	-1.44060E-001	-2.30330E-004	0.00000E+000	-1.44001E-001	0.00000E+000	9	...........
	576	23.08	-1.52032E-001	-2.21123E-004	0.00000E+000	-1.52005E-001	0.00000E+000	9	...........
	580	23.24	-1.60057E-001	-2.12310E-004	0.00000E+000	-1.60009E-001	0.00000E+000	9	...........
	584	23.4	-1.68073E-001	-2.05222E-004	0.00000E+000	-1.68013E-001	0.00000E+000	9	...........
	588	23.56	-1.76058E-001	-1.97739E-004	0.00000E+000	-1.76018E-001	0.00000E+000	9	...........
	592	23.72	-1.84084E-001	-1.91797E-004	0.00000E+000	-1.84022E-001	0.00000E+000	9	...........
	596	23.88	-1.92021E-001	-1.85579E-004	0.00000E+000	-1.91976E-001	0.00000E+000	9	...........
	600	24.04	-2.00042E-001	-1.79846E-004	0.00000E+000	-1.99980E-001	0.00000E+000	9	...........
	604	24.2	-2.08043E-001	-1.74870E-004	0.00000E+000	-2.07984E-001	0.00000E+000	9	...........
	608	24.36	-2.16037E-001	-1.69715E-004	0.00000E+000	-2.15988E-001	0.00000E+000	9	...........
	612	24.52	-2.24055E-001	-1.65716E-004	0.00000E+000	-2.23992E-001	0.00000E+000	9	...........
	616	24.68	-2.32063E-001	-1.61300E-004	0.00000E+000	-2.31996E-001	0.00000E+000	9	...........
	620	24.84	-2.40055E-001	-1.56698E-004	0.00000E+000	-2.40000E-001	0.00000E+000	9	...........
	624	25	-2.48071E-001	-1.52406E-004	0.00000E+000	-2.48004E-001	0.00000E+000	9	...........
	628	25.16	-2.56082E-001	-1.48410E-004	0.00000E+000	-2.56009E-001	0.00000E+000	9	...........
	632	25.32	-2.64077E-001	-1.46768E-004	0.00000E+000	-2.64013E-001	0.00000E+000	9	...........
	636	25.48	-2.72086E-001	-1.43111E-004	0.00000E+000	-2.72017E-001	0.00000E+000	9	...........
	640	25.64	-2.80089E-001	-1.40383E-004	0.00000E+000	-2.80021E-001	0.00000E+000	9	...........
	644	25.8	-2.88048E-001	-1.38775E-004	0.00000E+000	-2.87975E-001	0.00000E+000	9	...........
	648	25.96	-2.96060E-001	-1.36601E-004	0.00000E+000	-2.95979E-001	0.00000E+000	9	...........
	652	26.12	-3.04053E-001	-1.35876E-004	0.00000E+000	-3.03983E-001	0.00000E+000	9	...........
	656	26.28	-3.12040E-001	-1.34823E-004	0.00000E+000	-3.11987E-001	0.00000E+000	9	...........
	660	26.44	-3.20046E-001	-1.34283E-004	0.00000E+000	-3.19991E-001	0.00000E+000	9	...........
	664	26.6	-3.28053E-001	-1.34930E-004	0.00000E+000	-3.27995E-001	0.00000E+000	9	...........
	668	26.76	-3.36055E-001	-1.35040E-004	0.00000E+000	-3.36000E-001	0.00000E+000	9	...........
	672	26.92	-3.44063E-001	-1.37316E-004	0.00000E+000	-3.44004E-001	0.00000E+000	9	...........
	676	27.08	-3.52066E-001	-1.39166E-004	0.00000E+000	-3.52008E-001	0.00000E+000	9	...........
	680	27.24	-3.60094E-001	-1.42592E-004	0.00000E+000	-3.60012E-001	0.00000E+000	9	...........
	684	27.4	-3.68089E-001	-1.48060E-004	0.00000E+000	-3.68016E-001	0.00000E+000	9	...........
	688	27.56	-3.76082E-001	-1.52853E-004	0.00000E+000	-3.76020E-001	0.00000E+000	9	...........
	692	27.72	-3.84022E-001	-1.60449E-004	0.00000E+000	-3.83974E-001	0.00000E+000	9	...........
	696	27.88	-3.92048E-001	-1.67985E-004	0.00000E+000	-3.91978E-001	0.00000E+000	9	...........
	700	28.04	-4.00049E-001	-1.76338E-004	0.00000E+000	-3.99982E-001	0.00000E+000	9	...........
	704	28.2	-4.08040E-001	-1.86258E-004	0.00000E+000	-4.07986E-001	0.00000E+000	9	...........
	708	28.36	-4.16047E-001	-1.95286E-004	0.00000E+000	-4.15990E-001	0.00000E+000	9	...........
	712	28.52	-4.24066E-001	-2.06636E-004	0.00000E+000	-4.23995E-001	0.00000E+000	9	...........
	716	28.68	-4.32051E-001	-2.17700E-004	0.00000E+000	-4.31999E-001	0.00000E+000	9	...........
	720	28.84	-4.40082E-001	-2.29175E-004	0.00000E+000	-4.40003E-001	0.00000E+000	9	...........
	724	29	-4.48067E-001	-2.44372E-004	0.00000E+000	-4.48007E-001	0.00000E+000	9	...........
	728	29.16	-4.56085E-001	-2.54649E-004	0.00000E+000	-4.56011E-001	0.00000E+000	9	...........
	732	29.32	-4.64108E-001	-2.68584E-004	0.00000E+000	-4.64015E-001	0.00000E+000	9	...........
	736	29.48	-4.72092E-001	-2.80828E-004	0.00000E+000	-4.72019E-001	0.00000E+000	9	...........
	740	29.64	-4.80047E-001	-2.92700E-004	0.00000E+000	-4.79973E-001	0.00000E+000	9	...........
	744	29.8	-4.88049E-001	-3.05070E-004	0.00000E+000	-4.87977E-001	0.00000E+000	9	...........
	748	29.96	-4.96062E-001	-3.15690E-004	0.00000E+000	-4.95981E-001	0.00000E+000	9	...........
	752	30.12	-5.04073E-001	-3.25848E-004	0.00000E+000	-5.03986E-001	0.00000E+000	9	...........
	756	30.28	-5.12072E-001	-3.32451E-004	0.00000E+000	-5.11990E-001	0.00000E+000	9	...........
	760	30.44	-5.20067E-001	-3.36270E-004	0.00000E+000	-5.19994E-001	0.00000E+000	9	...........
	764	30.6	-5.28071E-001	-3.39117E-004	0.00000E+000	-5.27998E-001	0.00000E+000	9	...........
	768	30.76	-5.36064E-001	-3.35765E-004	0.00000E+000	-5.36002E-001	0.00000E+000	9	...........
	772	30.92	-5.44073E-001	-3.30849E-004	0.00000E+000	-5.44006E-001	0.00000E+000	9	...........
	776	31.08	-5.52074E-001	-3.21045E-004	0.00000E+000	-5.52010E-001	0.00000E+000	9	...........
	780	31.24	-5.60066E-001	-3.07167E-004	0.00000E+000	-5.60014E-001	0.00000E+000	9	...........
	784	31.4	-5.68099E-001	-2.94402E-004	0.00000E+000	-5.68018E-001	0.00000E+000	9	...........
	788	31.56	-5.76033E-001	-2.76145E-004	0.00000E+000	-5.75972E-001	0.00000E+000	9	...........
	792	31.72	-5.84036E-001	-2.63485E-004	0.00000E+000	-5.83977E-001	0.00000E+000	9	...........
	796	31.88	-5.92052E-001	-2.53224E-004	0.00000E+000	-5.91981E-001	0.00000E+000	9	...........
	800	32.04	-6.00060E-001	-2.49170E-004	0.00000E+000	-5.99985E-001	0.00000E+000	9	...........
	804	32.2	-6.08059E-001	-2.54784E-004	0.00000E+000	-6.07989E-001	0.00000E+000	9	...........
	808	32.36	-6.16077E-001	-2.73085E-004	0.00000E+000	-6.15993E-001	0.00000E+000	9	...........
	812	32.52	-6.24068E-001	-3.12163E-004	0.00000E+000	-6.23997E-001	0.00000E+000	9	...........
	816	32.68	-6.32075E-001	-3.74463E-004	0.00000E+000	-6.32001E-001	0.00000E+000	9	...........
	820	32.84	-6.40064E-001	-4.59125E-004	0.00000E+000	-6.40005E-001	0.00000E+000	9	...........
	824	33	-6.48082E-001	-5.62620E-004	0.00000E+000	-6.48009E-001	0.00000E+000	9	...........
	828	33.16	-6.56093E-001	-6.69906E-004	0.00000E+000	-6.56013E-001	0.00000E+000	9	...........
	832	33.32	-6.64092E-001	-7.69124E-004	0.00000E+000	-6.64017E-001	0.00000E+000	9	...........
	836	33.48	-6.72110E-001	-8.50162E-004	0.00000E+000	-6.72022E-001	0.00000E+000	9	...........
	840	33.64	-6.80077E-001	-9.04643E-004	0.00000E+000	-6.79976E-001	0.00000E+000	10	...........
	844	33.8	-6.88050E-001	-9.41680E-004	0.00000E+000	-6.87980E-001	0.00000E+000	10	...........
	848	33.96	-6.96074E-001	-9.59091E-004	0.00000E+000	-6.95984E-001	0.00000E+000	10	...........
	852	34.12	-7.04062E-001	-9.66687E-004	0.00000E+000	-7.03988E-001	0.00000E+000	10	...........
	856	34.28	-7.12079E-001	-9.68864E-004	0.00000E+000	-7.11992E-001	0.00000E+000	10	...........
	860	34.44	-7.20091E-001	-9.70098E-004	0.00000E+000	-7.19996E-001	0.00000E+000	10	...........
	864	34.6	-7.28073E-001	-9.77253E-004	0.00000E+000	-7.28000E-001	0.00000E+000	10	...........
	868	34.76	-7.36096E-001	-9.92042E-004	0.00000E+000	-7.36004E-001	0.00000E+000	10	...........
	872	34.92	-7.44097E-001	-1.01750E-003	0.00000E+000	-7.44008E-001	0.00000E+000	10	...........
	876	35.08	-7.52097E-001	-1.05812E-003	0.00000E+000	-7.52013E-001	0.00000E+000	10	...........
	880	35.24	-7.60086E-001	-1.11075E-003	0.00000E+000	-7.60017E-001	0.00000E+000	10	...........
	884	35.4	-7.68104E-001	-1.18663E-003	0.00000E+000	-7.68021E-001	0.00000E+000	10	...........
	888	35.56	-7.76067E-001	-1.27932E-003	0.00000E+000	-7.75975E-001	0.00000E+000	10	...........
	892	35.72	-7.84075E-001	-1.39935E-003	0.00000E+000	-7.83979E-001	0.00000E+000	10	...........
	896	35.88	-7.92056E-001	-1.54547E-003	0.00000E+000	-7.91983E-001	0.00000E+000	10	...........
	900	36.04	-8.00079E-001	-1.72377E-003	0.00000E+000	-7.99987E-001	0.00000E+000	10	...........
	904	36.2	-7.92064E-001	-1.09290E-003	0.00000E+000	-7.91983E-001	0.00000E+000	10	...........
	908	36.36	-7.84076E-001	-7.98540E-004	0.00000E+000	-7.83979E-001	0.00000E+000	10	...........
	912	36.52	-7.76060E-001	-6.20317E-004	0.00000E+000	-7.75975E-001	0.00000E+000	9	...........
	916	36.68	-7.68087E-001	-5.02649E-004	0.00000E+000	-7.68021E-001	0.00000E+000	9	...........
	920	36.84	-7.60101E-001	-4.19020E-004	0.00000E+000	-7.60017E-001	0.00000E+000	9	...........
	924	37	-7.52091E-001	-3.59630E-004	0.00000E+000	-7.52013E-001	0.00000E+000	9	...........
	928	37.16	-7.44096E-001	-3.12852E-004	0.00000E+000	-7.44008E-001	0.00000E+000	9	...........
	932	37.32	-7.36086E-001	-2.76536E-004	0.00000E+000	-7.36004E-001	0.00000E+000	9	...........
	936	37.48	-7.28069E-001	-2.43562E-004	0.00000E+000	-7.28000E-001	0.00000E+000	9	...........
	940	37.64	-7.20087E-001	-2.09534E-004	0.00000E+000	-7.19996E-001	0.00000E+000	9	...........
	944	37.8	-7.12072E-001	-1.72494E-004	0.00000E+000	-7.11992E-001	0.00000E+000	9	...........
	948	37.96	-7.04061E-001	-1.26757E-004	0.00000E+000	-7.03988E-001	0.00000E+000	9	...........
	952	38.12	-6.96085E-001	-7.01329E-005	0.00000E+000	-6.95984E-001	0.00000E+000	9	...........
	956	38.28	-6.88048E-001	1.18515E-006	0.00000E+000	-6.87980E-001	0.00000E+000	8	...........
	960	38.44	-6.80079E-001	8.62846E-005	0.00000E+000	-6.79976E-001	0.00000E+000	8	.....h.....
	964	38.6	-6.72106E-001	1.80092E-004	0.00000E+000	-6.72022E-001	0.00000E+000	9	...........
	968	38.76	-6.64093E-001	2.85231E-004	0.00000E+000	-6.64017E-001	0.00000E+000	9	...........
	972	38.92	-6.56091E-001	3.89850E-004	0.00000E+000	-6.56013E-001	0.00000E+000	9	...........
	976	39.08	-6.48086E-001	4.83368E-004	0.00000E+000	-6.48009E-001	0.00000E+000	9	...........
	980	39.24	-6.40074E-001	5.55638E-004	0.00000E+000	-6.40005E-001	0.00000E+000	9	...........
	984	39.4	-6.32078E-001	5.92286E-004	0.00000E+000	-6.32001E-001	0.00000E+000	9	...........
	988	39.56	-6.24064E-001	5.95426E-004	0.00000E+000	-6.23997E-001	0.00000E+000	9	...........
	992	39.72	-6.16079E-001	5.65228E-004	0.00000E+000	-6.15993E-001	0.00000E+000	9	...........
	996	39.88	-6.08058E-001	5.16613E-004	0.00000E+000	-6.07989E-001	0.00000E+000	9	...........
	1000	40.04	-6.00044E-001	4.64481E-004	0.00000E+000	-5.99985E-001	0.00000E+000	9	...........
	1004	40.2	-5.92055E-001	4.12677E-004	0.00000E+000	-5.91981E-001	0.00000E+000	9	...........
	1008	40.36	-5.84041E-001	3.69498E-004	0.00000E+000	-5.83977E-001	0.00000E+000	9	...........
	1012	40.52	-5.76031E-001	3.33901E-004	0.00000E+000	-5.75972E-001	0.00000E+000	9	...........
	1016	40.68	-5.68081E-001	3.03296E-004	0.00000E+000	-5.68018E-001	0.00000E+000	9	...........
	1020	40.84	-5.60075E-001	2.81411E-004	0.00000E+000	-5.60014E-001	0.00000E+000	9	...........
	1024	41	-5.52072E-001	2.62981E-004	0.00000E+000	-5.52010E-001	0.00000E+000	9	...........
	1028	41.16	-5.44071E-001	2.49984E-004	0.00000E+000	-5.44006E-001	0.00000E+000	9	...........
	1032	41.32	-5.36060E-001	2.39516E-004	0.00000E+000	-5.36002E-001	0.00000E+000	9	...........
	1036	41.48	-5.28067E-001	2.31204E-004	0.00000E+000	-5.27998E-001	0.00000E+000	9	...........
	1040	41.64	-5.20073E-001	2.27214E-004	0.00000E+000	-5.19994E-001	0.00000E+000	9	...........
	1044	41.8	-5.12064E-001	2.23585E-004	0.00000E+000	-5.11990E-001	0.00000E+000	9	...........
	1048	41.96	-5.04065E-001	2.22228E-004	0.00000E+000	-5.03986E-001	0.00000E+000	9	...........
	1052	42.12	-4.96056E-001	2.21938E-004	0.00000E+000	-4.95981E-001	0.00000E+000	9	...........
	1056	42.28	-4.88066E-001	2.19054E-004	0.00000E+000	-4.87977E-001	0.00000E+000	9	...........
	1060	42.44	-4.80041E-001	2.20619E-004	0.00000E+000	-4.79973E-001	0.00000E+000	9	...........
	1064	42.6	-4.72092E-001	2.17936E-004	0.00000E+000	-4.72019E-001	0.00000E+000	9	...........
	1068	42.76	-4.64090E-001	2.16361E-004	0.00000E+000	-4.64015E-001	0.00000E+000	9	...........
	1072	42.92	-4.56072E-001	2.13765E-004	0.00000E+000	-4.56011E-001	0.00000E+000	9	...........
	1076	43.08	-4.48049E-001	2.08233E-004	0.00000E+000	-4.48007E-001	0.00000E+000	9	...........
	1080	43.24	-4.40064E-001	2.03509E-004	0.00000E+000	-4.40003E-001	0.00000E+000	9	...........
	1084	43.4	-4.32041E-001	1.94504E-004	0.00000E+000	-4.31999E-001	0.00000E+000	9	...........
	1088	43.56	-4.24058E-001	1.84753E-004	0.00000E+000	-4.23995E-001	0.00000E+000	9	...........
	1092	43.72	-4.16031E-001	1.74056E-004	0.00000E+000	-4.15990E-001	0.00000E+000	9	...........
	1096	43.88	-4.08029E-001	1.59558E-004	0.00000E+000	-4.07986E-001	0.00000E+000	9	...........
	1100	44.04	-4.00038E-001	1.48461E-004	0.00000E+000	-3.99982E-001	0.00000E+000	9	...........
	1104	44.2	-3.92029E-001	1.34992E-004	0.00000E+000	-3.91978E-001	0.00000E+000	9	...........
	1108	44.36	-3.84016E-001	1.21930E-004	0.00000E+000	-3.83974E-001	0.00000E+000	9	...........
	1112	44.52	-3.76078E-001	1.10408E-004	0.00000E+000	-3.76020E-001	0.00000E+000	9	...........
	1116	44.68	-3.68069E-001	9.71339E-005	0.00000E+000	-3.68016E-001	0.00000E+000	9	...........
	1120	44.84	-3.60079E-001	8.68370E-005	0.00000E+000	-3.60012E-001	0.00000E+000	9	...........
	1124	45	-3.52059E-001	7.52423E-005	0.00000E+000	-3.52008E-001	0.00000E+000	8	...........
	1128	45.16	-3.44054E-001	6.60409E-005	0.00000E+000	-3.44004E-001	0.00000E+000	8	...........
	1132	45.32	-3.36054E-001	5.91499E-005	0.00000E+000	-3.36000E-001	0.00000E+000	8	...........
	1136	45.48	-3.28043E-001	5.16818E-005	0.00000E+000	-3.27995E-001	0.00000E+000	8	...........
	1140	45.64	-3.20039E-001	4.75796E-005	0.00000E+000	-3.19991E-001	0.00000E+000	8	...........
	1144	45.8	-3.12040E-001	4.33162E-005	0.00000E+000	-3.11987E-001	0.00000E+000	8	...........
	1148	45.96	-3.04033E-001	3.98868E-005	0.00000E+000	-3.03983E-001	0.00000E+000	8	...........
	1152	46.12	-2.96040E-001	3.79958E-005	0.00000E+000	-2.95979E-001	0.00000E+000	8	...........
	1156	46.28	-2.88038E-001	3.51429E-005	0.00000E+000	-2.87975E-001	0.00000E+000	8	...........
	1160	46.44	-2.80076E-001	3.39971E-005	0.00000E+000	-2.80021E-001	0.00000E+000	8	...........
	1164	46.6	-2.72069E-001	3.30291E-005	0.00000E+000	-2.72017E-001	0.00000E+000	8	...........
	1168	46.76	-2.64072E-001	3.15255E-005	0.00000E+000	-2.64013E-001	0.00000E+000	8	...........
	1172	46.92	-2.56072E-001	3.17513E-005	0.00000E+000	-2.56009E-001	0.00000E+000	8	...........
	1176	47.08	-2.48054E-001	3.09373E-005	0.00000E+000	-2.48004E-001	0.00000E+000	8	...........
	1180	47.24	-2.40037E-001	3.07477E-005	0.00000E+000	-2.40000E-001	0.00000E+000	8	...........
	1184	47.4	-2.32061E-001	3.12204E-005	0.00000E+000	-2.31996E-001	0.00000E+000	8	...........
	1188	47.56	-2.24034E-001	3.07654E-005	0.00000E+000	-2.23992E-001	0.00000E+000	8	...........
	1192	47.72	-2.16019E-001	3.16890E-005	0.00000E+000	-2.15988E-001	0.00000E+000	8	...........
	1196	47.88	-2.08024E-001	3.15590E-005	0.00000E+000	-2.07984E-001	0.00000E+000	8	...........
	1200	48.04	-2.00030E-001	3.19678E-005	0.00000E+000	-1.99980E-001	0.00000E+000	8	...........
	1204	48.2	-1.92008E-001	3.31089E-005	0.00000E+000	-1.91976E-001	0.00000E+000	8	...........
	1208	48.36	-1.84068E-001	3.30765E-005	0.00000E+000	-1.84022E-001	0.00000E+000	8	...........
	1212	48.52	-1.76040E-001	3.44951E-005	0.00000E+000	-1.76018E-001	0.00000E+000	8	...........
	1216	48.68	-1.68054E-001	3.49394E-005	0.00000E+000	-1.68013E-001	0.00000E+000	8	...........
	1220	48.84	-1.60049E-001	3.58918E-005	0.00000E+000	-1.60009E-001	0.00000E+000	8	...........
	1224	49	-1.52031E-001	3.71555E-005	0.00000E+000	-1.52005E-001	0.00000E+000	8	...........
	1228	49.16	-1.44056E-001	3.77891E-005	0.00000E+000	-1.44001E-001	0.00000E+000	8	...........
	1232	49.32	-1.36028E-001	3.94996E-005	0.00000E+000	-1.35997E-001	0.00000E+000	8	...........
	1236	49.48	-1.28051E-001	4.03981E-005	0.00000E+000	-1.27993E-001	0.00000E+000	8	...........
	1240	49.64	-1.20011E-001	4.16613E-005	0.00000E+000	-1.19989E-001	0.00000E+000	8	...........
	1244	49.8	-1.12027E-001	4.34131E-005	0.00000E+000	-1.11985E-001	0.00000E+000	8	...........
	1248	49.96	-1.04049E-001	4.39217E-005	0.00000E+000	-1.03981E-001	0.00000E+000	8	...........
	1252	50.12	-9.60279E-002	4.58876E-005	0.00000E+000	-9.59766E-002	0.00000E+000	8	...........
	1256	50.28	-8.80711E-002	4.67937E-005	0.00000E+000	-8.80225E-002	0.00000E+000	8	...........
	1260	50.44	-8.00690E-002	4.78079E-005	0.00000E+000	-8.00184E-002	0.00000E+000	8	...........
	1264	50.6	-7.20633E-002	4.93268E-005	0.00000E+000	-7.20143E-002	0.00000E+000	8	...........
	1268	50.76	-6.40656E-002	4.96935E-005	0.00000E+000	-6.40102E-002	0.00000E+000	8	...........
	1272	50.92	-5.60677E-002	5.11993E-005	0.00000E+000	-5.60061E-002	0.00000E+000	8	...........
	1276	51.08	-4.80574E-002	5.16794E-005	0.00000E+000	-4.80020E-002	0.00000E+000	8	...........
	1280	51.24	-4.00491E-002	5.22058E-005	0.00000E+000	-3.99979E-002	0.00000E+000	8	...........
	1284	51.4	-3.20418E-002	5.31889E-005	0.00000E+000	-3.19938E-002	0.00000E+000	8	...........
	1288	51.56	-2.40180E-002	5.29132E-005	0.00000E+000	-2.39897E-002	0.00000E+000	8	...........
	1292	51.72	-1.60200E-002	5.38326E-005	0.00000E+000	-1.59856E-002	0.00000E+000	8	...........
	1296	51.88	-8.00834E-003	5.38738E-005	0.00000E+000	-7.98152E-003	0.00000E+000	8	...........
	1300	52.04	2.10473E-006	5.38553E-005	0.00000E+000	2.25753E-005	0.00000E+000	8	...........
	1304	52.2	8.00713E-003	5.45388E-005	0.00000E+000	8.02667E-003	0.00000E+000	8	...........
	1308	52.36	1.59619E-002	5.38908E-005	0.00000E+000	1.59808E-002	0.00000E+000	8	...........
	1312	52.52	2.39592E-002	5.46773E-005	0.00000E+000	2.39848E-002	0.00000E+000	8	...........
	1316	52.68	3.19675E-002	5.47392E-005	0.00000E+000	3.19889E-002	0.00000E+000	8	...........
	1320	52.84	3.99657E-002	5.48689E-005	0.00000E+000	3.99930E-002	0.00000E+000	8	...........
	1324	53	4.79663E-002	5.57915E-005	0.00000E+000	4.79971E-002	0.00000E+000	8	...........
	1328	53.16	5.59907E-002	5.57696E-005	0.00000E+000	5.60012E-002	0.00000E+000	8	...........
	1332	53.32	6.39810E-002	5.67661E-005	0.00000E+000	6.40053E-002	0.00000E+000	8	...........
	1336	53.48	7.19879E-002	5.77231E-005	0.00000E+000	7.20094E-002	0.00000E+000	8	...........
	1340	53.64	8.00004E-002	5.83735E-005	0.00000E+000	8.00135E-002	0.00000E+000	8	...........
	1344	53.8	8.80077E-002	6.03835E-005	0.00000E+000	8.80176E-002	0.00000E+000	8	...........
	1348	53.96	9.59917E-002	6.13680E-005	0.00000E+000	9.60217E-002	0.00000E+000	8	...........
	1352	54.12	1.04018E-001	6.38310E-005	0.00000E+000	1.04026E-001	0.00000E+000	8	...........
	1356	54.28	1.11951E-001	6.63223E-005	0.00000E+000	1.11980E-001	0.00000E+000	8	...........
	1360	54.44	1.19975E-001	6.74175E-005	0.00000E+000	1.19984E-001	0.00000E+000	8	...........
	1364	54.6	1.27972E-001	6.93288E-005	0.00000E+000	1.27988E-001	0.00000E+000	8	...........
	1368	54.76	1.35983E-001	7.02388E-005	0.00000E+000	1.35992E-001	0.00000E+000	8	...........
	1372	54.92	1.43981E-001	7.26004E-005	0.00000E+000	1.43996E-001	0.00000E+000	8	...........
	1376	55.08	1.51974E-001	7.51383E-005	0.00000E+000	1.52000E-001	0.00000E+000	8	...........
	1380	55.24	1.59998E-001	7.76883E-005	0.00000E+000	1.60005E-001	0.00000E+000	8	...........
	1384	55.4	1.68010E-001	8.19767E-005	0.00000E+000	1.68009E-001	0.00000E+000	8	...........
	1388	55.56	1.76008E-001	8.57530E-005	0.00000E+000	1.76013E-001	0.00000E+000	8	...........
	1392	55.72	1.84036E-001	9.10078E-005	0.00000E+000	1.84017E-001	0.00000E+000	9	...........
	1396	55.88	1.92020E-001	9.74052E-005	0.00000E+000	1.92021E-001	0.00000E+000	9	...........
	1400	56.04	2.00037E-001	1.04763E-004	0.00000E+000	2.00025E-001	0.00000E+000	9	...........
	1404	56.2	2.07990E-001	1.14582E-004	0.00000E+000	2.07979E-001	0.00000E+000	9	...........
	1408	56.36	2.15991E-001	1.24988E-004	0.00000E+000	2.15983E-001	0.00000E+000	9	...........
	1412	56.52	2.23996E-001	1.38386E-004	0.00000E+000	2.23987E-001	0.00000E+000	9	...........
	1416	56.68	2.32028E-001	1.53000E-004	0.00000E+000	2.31991E-001	0.00000E+000	9	...........
	1420	56.84	2.40005E-001	1.69062E-004	0.00000E+000	2.39995E-001	0.00000E+000	9	...........
	1424	57	2.48020E-001	1.87618E-004	0.00000E+000	2.48000E-001	0.00000E+000	9	...........
	1428	57.16	2.56014E-001	2.06036E-004	0.00000E+000	2.56004E-001	0.00000E+000	9	...........
	1432	57.32	2.64032E-001	2.25678E-004	0.00000E+000	2.64008E-001	0.00000E+000	9	...........
	1436	57.48	2.72041E-001	2.44815E-004	0.00000E+000	2.72012E-001	0.00000E+000	9	...........
	1440	57.64	2.80033E-001	2.62716E-004	0.00000E+000	2.80016E-001	0.00000E+000	9	...........
[...]
	18487	739.52	2.60103E-002	-7.67655E-004	0.00000E+000	2.59859E-002	0.00000E+000	9	...........
	18489	739.6	2.19850E-002	-7.45499E-004	0.00000E+000	2.19838E-002	0.00000E+000	9	...........
	18491	739.68	1.79799E-002	-7.23272E-004	0.00000E+000	1.79818E-002	0.00000E+000	9	...........
	18493	739.76	1.39848E-002	-7.01255E-004	0.00000E+000	1.39797E-002	0.00000E+000	9	...........
	18495	739.84	9.96359E-003	-6.79642E-004	0.00000E+000	9.97768E-003	0.00000E+000	9	...........
	18497	739.92	6.02397E-003	-6.58182E-004	0.00000E+000	6.02565E-003	0.00000E+000	9	...........
	18499	740	2.03721E-003	-6.37174E-004	0.00000E+000	2.02360E-003	0.00000E+000	9	...........
	18501	740.08	-1.99816E-003	-6.15849E-004	0.00000E+000	-1.97845E-003	0.00000E+000	9	...........
	18503	740.16	-5.99181E-003	-5.95199E-004	0.00000E+000	-5.98050E-003	0.00000E+000	9	...........
	18505	740.24	-9.99192E-003	-5.75158E-004	0.00000E+000	-9.98255E-003	0.00000E+000	9	...........
	18507	740.32	-1.39945E-002	-5.55468E-004	0.00000E+000	-1.39846E-002	0.00000E+000	9	...........
	18509	740.4	-1.79961E-002	-5.35888E-004	0.00000E+000	-1.79866E-002	0.00000E+000	9	...........
	18511	740.48	-2.19937E-002	-5.16362E-004	0.00000E+000	-2.19887E-002	0.00000E+000	9	...........
	18513	740.56	-2.60157E-002	-4.97001E-004	0.00000E+000	-2.59908E-002	0.00000E+000	9	...........
	18515	740.64	-3.00079E-002	-4.79541E-004	0.00000E+000	-2.99928E-002	0.00000E+000	9	...........
	18517	740.72	-3.40078E-002	-4.62896E-004	0.00000E+000	-3.39949E-002	0.00000E+000	9	...........
	18519	740.8	-3.80038E-002	-4.46183E-004	0.00000E+000	-3.79969E-002	0.00000E+000	9	...........
	18521	740.88	-4.20162E-002	-4.30145E-004	0.00000E+000	-4.19990E-002	0.00000E+000	9	...........
	18523	740.96	-4.60073E-002	-4.15111E-004	0.00000E+000	-4.60010E-002	0.00000E+000	9	...........
	18525	741.04	-5.00243E-002	-4.00857E-004	0.00000E+000	-5.00031E-002	0.00000E+000	9	...........
	18527	741.12	-5.40336E-002	-3.87418E-004	0.00000E+000	-5.40051E-002	0.00000E+000	9	...........
	18529	741.2	-5.80369E-002	-3.74346E-004	0.00000E+000	-5.80072E-002	0.00000E+000	9	...........
	18531	741.28	-6.20332E-002	-3.61575E-004	0.00000E+000	-6.20092E-002	0.00000E+000	9	...........
	18533	741.36	-6.60400E-002	-3.49879E-004	0.00000E+000	-6.60113E-002	0.00000E+000	9	...........
	18535	741.44	-7.00307E-002	-3.39180E-004	0.00000E+000	-7.00133E-002	0.00000E+000	9	...........
	18537	741.52	-7.40409E-002	-3.29272E-004	0.00000E+000	-7.40153E-002	0.00000E+000	9	...........
	18539	741.6	-7.80587E-002	-3.19392E-004	0.00000E+000	-7.80174E-002	0.00000E+000	9	...........
	18541	741.68	-8.20555E-002	-3.10023E-004	0.00000E+000	-8.20194E-002	0.00000E+000	9	...........
	18543	741.76	-8.60464E-002	-3.01591E-004	0.00000E+000	-8.60215E-002	0.00000E+000	9	...........
	18545	741.84	-9.00217E-002	-2.93716E-004	0.00000E+000	-8.99735E-002	0.00000E+000	9	...........
	18547	741.92	-9.40070E-002	-2.86887E-004	0.00000E+000	-9.39756E-002	0.00000E+000	9	...........
	18549	742	-9.80127E-002	-2.80037E-004	0.00000E+000	-9.79776E-002	0.00000E+000	9	...........
	18551	742.08	-1.02030E-001	-2.73479E-004	0.00000E+000	-1.01980E-001	0.00000E+000	9	...........
	18553	742.16	-1.06011E-001	-2.67659E-004	0.00000E+000	-1.05982E-001	0.00000E+000	9	...........
	18555	742.24	-1.10007E-001	-2.62793E-004	0.00000E+000	-1.09984E-001	0.00000E+000	9	...........
	18557	742.32	-1.14009E-001	-2.58586E-004	0.00000E+000	-1.13986E-001	0.00000E+000	9	...........
	18559	742.4	-1.18013E-001	-2.53635E-004	0.00000E+000	-1.17988E-001	0.00000E+000	9	...........
	18561	742.48	-1.22008E-001	-2.49177E-004	0.00000E+000	-1.21990E-001	0.00000E+000	9	...........
	18563	742.56	-1.26006E-001	-2.45084E-004	0.00000E+000	-1.25992E-001	0.00000E+000	9	...........
	18565	742.64	-1.30022E-001	-2.41993E-004	0.00000E+000	-1.29994E-001	0.00000E+000	9	...........
	18567	742.72	-1.34018E-001	-2.38942E-004	0.00000E+000	-1.33996E-001	0.00000E+000	9	...........
	18569	742.8	-1.38010E-001	-2.35792E-004	0.00000E+000	-1.37998E-001	0.00000E+000	9	...........
	18571	742.88	-1.42030E-001	-2.32324E-004	0.00000E+000	-1.42000E-001	0.00000E+000	9	...........
	18573	742.96	-1.46017E-001	-2.29354E-004	0.00000E+000	-1.46002E-001	0.00000E+000	9	...........
	18575	743.04	-1.50015E-001	-2.27011E-004	0.00000E+000	-1.50004E-001	0.00000E+000	9	...........
	18577	743.12	-1.54049E-001	-2.24688E-004	0.00000E+000	-1.54006E-001	0.00000E+000	9	...........
	18579	743.2	-1.58046E-001	-2.21997E-004	0.00000E+000	-1.58008E-001	0.00000E+000	9	...........
	18581	743.28	-1.62033E-001	-2.18858E-004	0.00000E+000	-1.62010E-001	0.00000E+000	9	...........
	18583	743.36	-1.66032E-001	-2.16193E-004	0.00000E+000	-1.66012E-001	0.00000E+000	9	...........
	18585	743.44	-1.70050E-001	-2.13908E-004	0.00000E+000	-1.70015E-001	0.00000E+000	9	...........
	18587	743.52	-1.74036E-001	-2.11508E-004	0.00000E+000	-1.74017E-001	0.00000E+000	9	...........
	18589	743.6	-1.78033E-001	-2.08639E-004	0.00000E+000	-1.78019E-001	0.00000E+000	9	...........
	18591	743.68	-1.82051E-001	-2.05138E-004	0.00000E+000	-1.82021E-001	0.00000E+000	9	...........
	18593	743.76	-1.86058E-001	-2.02161E-004	0.00000E+000	-1.86023E-001	0.00000E+000	9	...........
	18595	743.84	-1.90006E-001	-1.99484E-004	0.00000E+000	-1.89975E-001	0.00000E+000	9	...........
	18597	743.92	-1.94011E-001	-1.96933E-004	0.00000E+000	-1.93977E-001	0.00000E+000	9	...........
	18599	744	-1.98008E-001	-1.93451E-004	0.00000E+000	-1.97979E-001	0.00000E+000	9	...........
	18601	744.08	-2.02004E-001	-1.91313E-004	0.00000E+000	-2.01981E-001	0.00000E+000	9	...........
	18603	744.16	-2.06025E-001	-1.86463E-004	0.00000E+000	-2.05983E-001	0.00000E+000	9	...........
	18605	744.24	-2.10009E-001	-1.83796E-004	0.00000E+000	-2.09985E-001	0.00000E+000	9	...........
	18607	744.32	-2.14012E-001	-1.81207E-004	0.00000E+000	-2.13987E-001	0.00000E+000	9	...........
	18609	744.4	-2.18039E-001	-1.77725E-004	0.00000E+000	-2.17989E-001	0.00000E+000	9	...........
	18611	744.48	-2.22017E-001	-1.74037E-004	0.00000E+000	-2.21991E-001	0.00000E+000	9	...........
	18613	744.56	-2.26018E-001	-1.70897E-004	0.00000E+000	-2.25993E-001	0.00000E+000	9	...........
	18615	744.64	-2.30024E-001	-1.68066E-004	0.00000E+000	-2.29995E-001	0.00000E+000	9	...........
	18617	744.72	-2.34041E-001	-1.65115E-004	0.00000E+000	-2.33997E-001	0.00000E+000	9	...........
	18619	744.8	-2.38043E-001	-1.61724E-004	0.00000E+000	-2.37999E-001	0.00000E+000	9	...........
	18621	744.88	-2.42031E-001	-1.58147E-004	0.00000E+000	-2.42001E-001	0.00000E+000	9	...........
	18623	744.96	-2.46053E-001	-1.55082E-004	0.00000E+000	-2.46003E-001	0.00000E+000	9	...........
	18625	745.04	-2.50049E-001	-1.52276E-004	0.00000E+000	-2.50005E-001	0.00000E+000	9	...........
	18627	745.12	-2.54040E-001	-1.49862E-004	0.00000E+000	-2.54008E-001	0.00000E+000	9	...........
	18629	745.2	-2.58069E-001	-1.46913E-004	0.00000E+000	-2.58010E-001	0.00000E+000	9	...........
	18631	745.28	-2.62057E-001	-1.43550E-004	0.00000E+000	-2.62012E-001	0.00000E+000	9	...........
	18633	745.36	-2.66058E-001	-1.40754E-004	0.00000E+000	-2.66014E-001	0.00000E+000	9	...........
	18635	745.44	-2.70074E-001	-1.38852E-004	0.00000E+000	-2.70016E-001	0.00000E+000	9	...........
	18637	745.52	-2.74072E-001	-1.36665E-004	0.00000E+000	-2.74018E-001	0.00000E+000	9	...........
	18639	745.6	-2.78039E-001	-1.33981E-004	0.00000E+000	-2.78020E-001	0.00000E+000	9	...........
	18641	745.68	-2.82087E-001	-1.31366E-004	0.00000E+000	-2.82022E-001	0.00000E+000	9	...........
	18643	745.76	-2.86022E-001	-1.28941E-004	0.00000E+000	-2.85974E-001	0.00000E+000	9	...........
	18645	745.84	-2.90030E-001	-1.27522E-004	0.00000E+000	-2.89976E-001	0.00000E+000	9	...........
	18647	745.92	-2.94015E-001	-1.26112E-004	0.00000E+000	-2.93978E-001	0.00000E+000	9	...........
	18649	746	-2.98043E-001	-1.24320E-004	0.00000E+000	-2.97980E-001	0.00000E+000	9	...........
	18651	746.08	-3.02032E-001	-1.22376E-004	0.00000E+000	-3.01982E-001	0.00000E+000	9	...........
	18653	746.16	-3.06020E-001	-1.20888E-004	0.00000E+000	-3.05984E-001	0.00000E+000	9	...........
	18655	746.24	-3.10034E-001	-1.20237E-004	0.00000E+000	-3.09986E-001	0.00000E+000	9	...........
	18657	746.32	-3.14030E-001	-1.19482E-004	0.00000E+000	-3.13988E-001	0.00000E+000	9	...........
	18659	746.4	-3.18018E-001	-1.18482E-004	0.00000E+000	-3.17990E-001	0.00000E+000	9	...........
	18661	746.48	-3.22032E-001	-1.17279E-004	0.00000E+000	-3.21992E-001	0.00000E+000	9	...........
	18663	746.56	-3.26033E-001	-1.16922E-004	0.00000E+000	-3.25994E-001	0.00000E+000	9	...........
	18665	746.64	-3.30034E-001	-1.17141E-004	0.00000E+000	-3.29996E-001	0.00000E+000	9	...........
	18667	746.72	-3.34051E-001	-1.17365E-004	0.00000E+000	-3.33999E-001	0.00000E+000	9	...........
	18669	746.8	-3.38042E-001	-1.17049E-004	0.00000E+000	-3.38001E-001	0.00000E+000	9	...........
	18671	746.88	-3.42038E-001	-1.16922E-004	0.00000E+000	-3.42003E-001	0.00000E+000	9	...........
	18673	746.96	-3.46053E-001	-1.17750E-004	0.00000E+000	-3.46005E-001	0.00000E+000	9	...........
	18675	747.04	-3.50026E-001	-1.18879E-004	0.00000E+000	-3.50007E-001	0.00000E+000	9	...........
	18677	747.12	-3.54049E-001	-1.20921E-004	0.00000E+000	-3.54009E-001	0.00000E+000	9	...........
	18679	747.2	-3.58043E-001	-1.21406E-004	0.00000E+000	-3.58011E-001	0.00000E+000	9	...........
	18681	747.28	-3.62064E-001	-1.22749E-004	0.00000E+000	-3.62013E-001	0.00000E+000	9	...........
	18683	747.36	-3.66063E-001	-1.25183E-004	0.00000E+000	-3.66015E-001	0.00000E+000	9	...........
	18685	747.44	-3.70073E-001	-1.28598E-004	0.00000E+000	-3.70017E-001	0.00000E+000	9	...........
	18687	747.52	-3.74077E-001	-1.31442E-004	0.00000E+000	-3.74019E-001	0.00000E+000	9	...........
	18689	747.6	-3.78077E-001	-1.33485E-004	0.00000E+000	-3.78021E-001	0.00000E+000	9	...........
	18691	747.68	-3.82013E-001	-1.35648E-004	0.00000E+000	-3.81973E-001	0.00000E+000	9	...........
	18693	747.76	-3.86035E-001	-1.39800E-004	0.00000E+000	-3.85975E-001	0.00000E+000	9	...........
	18695	747.84	-3.90027E-001	-1.43893E-004	0.00000E+000	-3.89977E-001	0.00000E+000	9	...........
	18697	747.92	-3.94024E-001	-1.47591E-004	0.00000E+000	-3.93979E-001	0.00000E+000	9	...........
	18699	748	-3.98036E-001	-1.50485E-004	0.00000E+000	-3.97981E-001	0.00000E+000	9	...........
	18701	748.08	-4.02029E-001	-1.54030E-004	0.00000E+000	-4.01983E-001	0.00000E+000	9	...........
	18703	748.16	-4.06031E-001	-1.58253E-004	0.00000E+000	-4.05985E-001	0.00000E+000	9	...........
	18705	748.24	-4.10042E-001	-1.63324E-004	0.00000E+000	-4.09987E-001	0.00000E+000	9	...........
	18707	748.32	-4.14036E-001	-1.67740E-004	0.00000E+000	-4.13989E-001	0.00000E+000	9	...........
	18709	748.4	-4.18033E-001	-1.71632E-004	0.00000E+000	-4.17992E-001	0.00000E+000	9	...........
	18711	748.48	-4.22029E-001	-1.75536E-004	0.00000E+000	-4.21994E-001	0.00000E+000	9	...........
	18713	748.56	-4.26047E-001	-1.81103E-004	0.00000E+000	-4.25996E-001	0.00000E+000	9	...........
	18715	748.64	-4.30039E-001	-1.86891E-004	0.00000E+000	-4.29998E-001	0.00000E+000	9	...........
	18717	748.72	-4.34023E-001	-1.92292E-004	0.00000E+000	-4.34000E-001	0.00000E+000	9	...........
	18719	748.8	-4.38060E-001	-1.96764E-004	0.00000E+000	-4.38002E-001	0.00000E+000	9	...........
	18721	748.88	-4.42045E-001	-2.01990E-004	0.00000E+000	-4.42004E-001	0.00000E+000	9	...........
	18723	748.96	-4.46047E-001	-2.10444E-004	0.00000E+000	-4.46006E-001	0.00000E+000	9	...........
	18725	749.04	-4.50059E-001	-2.17419E-004	0.00000E+000	-4.50008E-001	0.00000E+000	9	...........
	18727	749.12	-4.54050E-001	-2.22885E-004	0.00000E+000	-4.54010E-001	0.00000E+000	9	...........
	18729	749.2	-4.58057E-001	-2.27810E-004	0.00000E+000	-4.58012E-001	0.00000E+000	9	...........
	18731	749.28	-4.62079E-001	-2.29406E-004	0.00000E+000	-4.62014E-001	0.00000E+000	9	...........
	18733	749.36	-4.66081E-001	-2.35324E-004	0.00000E+000	-4.66016E-001	0.00000E+000	9	...........
	18735	749.44	-4.70073E-001	-2.41002E-004	0.00000E+000	-4.70018E-001	0.00000E+000	9	...........
	18737	749.52	-4.74073E-001	-2.46136E-004	0.00000E+000	-4.74020E-001	0.00000E+000	9	...........
	18739	749.6	-4.78034E-001	-2.49009E-004	0.00000E+000	-4.77972E-001	0.00000E+000	9	...........
	18741	749.68	-4.82037E-001	-2.54272E-004	0.00000E+000	-4.81974E-001	0.00000E+000	9	...........
	18743	749.76	-4.86016E-001	-2.58144E-004	0.00000E+000	-4.85976E-001	0.00000E+000	9	...........
	18745	749.84	-4.90051E-001	-2.63753E-004	0.00000E+000	-4.89978E-001	0.00000E+000	9	...........
	18747	749.92	-4.94055E-001	-2.68815E-004	0.00000E+000	-4.93980E-001	0.00000E+000	9	...........
	18749	750	-4.98029E-001	-2.70841E-004	0.00000E+000	-4.97982E-001	0.00000E+000	9	...........
	18751	750.08	-5.02051E-001	-2.73624E-004	0.00000E+000	-5.01985E-001	0.00000E+000	9	...........
	18753	750.16	-5.06054E-001	-2.76349E-004	0.00000E+000	-5.05987E-001	0.00000E+000	9	...........
	18755	750.24	-5.10047E-001	-2.79776E-004	0.00000E+000	-5.09989E-001	0.00000E+000	9	...........
	18757	750.32	-5.14080E-001	-2.81546E-004	0.00000E+000	-5.13991E-001	0.00000E+000	9	...........
	18759	750.4	-5.18042E-001	-2.81355E-004	0.00000E+000	-5.17993E-001	0.00000E+000	9	...........
	18761	750.48	-5.22031E-001	-2.80007E-004	0.00000E+000	-5.21995E-001	0.00000E+000	9	...........
	18763	750.56	-5.26046E-001	-2.80013E-004	0.00000E+000	-5.25997E-001	0.00000E+000	9	...........
	18765	750.64	-5.30043E-001	-2.78910E-004	0.00000E+000	-5.29999E-001	0.00000E+000	9	...........
	18767	750.72	-5.34054E-001	-2.76235E-004	0.00000E+000	-5.34001E-001	0.00000E+000	9	...........
	18769	750.8	-5.38053E-001	-2.71921E-004	0.00000E+000	-5.38003E-001	0.00000E+000	9	...........
	18771	750.88	-5.42052E-001	-2.66802E-004	0.00000E+000	-5.42005E-001	0.00000E+000	9	...........
	18773	750.96	-5.46060E-001	-2.62794E-004	0.00000E+000	-5.46007E-001	0.00000E+000	9	...........
	18775	751.04	-5.50056E-001	-2.58717E-004	0.00000E+000	-5.50009E-001	0.00000E+000	9	...........
	18777	751.12	-5.54066E-001	-2.52717E-004	0.00000E+000	-5.54011E-001	0.00000E+000	9	...........
	18779	751.2	-5.58057E-001	-2.46470E-004	0.00000E+000	-5.58013E-001	0.00000E+000	9	...........
	18781	751.28	-5.62050E-001	-2.40020E-004	0.00000E+000	-5.62015E-001	0.00000E+000	9	...........
	18783	751.36	-5.66079E-001	-2.34272E-004	0.00000E+000	-5.66017E-001	0.00000E+000	9	...........
	18785	751.44	-5.70075E-001	-2.28729E-004	0.00000E+000	-5.70019E-001	0.00000E+000	9	...........
	18787	751.52	-5.74072E-001	-2.22907E-004	0.00000E+000	-5.74021E-001	0.00000E+000	9	...........
	18789	751.6	-5.78030E-001	-2.16388E-004	0.00000E+000	-5.77973E-001	0.00000E+000	9	...........
	18791	751.68	-5.82020E-001	-2.10181E-004	0.00000E+000	-5.81975E-001	0.00000E+000	9	...........
	18793	751.76	-5.86025E-001	-2.06054E-004	0.00000E+000	-5.85978E-001	0.00000E+000	9	...........
	18795	751.84	-5.90056E-001	-2.02855E-004	0.00000E+000	-5.89980E-001	0.00000E+000	9	...........
	18797	751.92	-5.94035E-001	-2.00018E-004	0.00000E+000	-5.93982E-001	0.00000E+000	9	...........
	18799	752	-5.98033E-001	-1.97507E-004	0.00000E+000	-5.97984E-001	0.00000E+000	9	...........
	18801	752.08	-6.02034E-001	-1.97049E-004	0.00000E+000	-6.01986E-001	0.00000E+000	9	...........
	18803	752.16	-6.06047E-001	-1.98526E-004	0.00000E+000	-6.05988E-001	0.00000E+000	9	...........
	18805	752.24	-6.10051E-001	-2.03863E-004	0.00000E+000	-6.09990E-001	0.00000E+000	9	...........
	18807	752.32	-6.14034E-001	-2.11146E-004	0.00000E+000	-6.13992E-001	0.00000E+000	9	...........
	18809	752.4	-6.18056E-001	-2.21068E-004	0.00000E+000	-6.17994E-001	0.00000E+000	9	...........
	18811	752.48	-6.22042E-001	-2.34835E-004	0.00000E+000	-6.21996E-001	0.00000E+000	9	...........
	18813	752.56	-6.26052E-001	-2.55383E-004	0.00000E+000	-6.25998E-001	0.00000E+000	9	...........
	18815	752.64	-6.30061E-001	-2.80173E-004	0.00000E+000	-6.30000E-001	0.00000E+000	9	...........
	18817	752.72	-6.34053E-001	-3.10168E-004	0.00000E+000	-6.34002E-001	0.00000E+000	9	...........
	18819	752.8	-6.38046E-001	-3.45341E-004	0.00000E+000	-6.38004E-001	0.00000E+000	9	...........
	18821	752.88	-6.42068E-001	-3.83766E-004	0.00000E+000	-6.42006E-001	0.00000E+000	9	...........
	18823	752.96	-6.46061E-001	-4.26816E-004	0.00000E+000	-6.46008E-001	0.00000E+000	9	...........
	18825	753.04	-6.50070E-001	-4.73076E-004	0.00000E+000	-6.50010E-001	0.00000E+000	9	...........
	18827	753.12	-6.54086E-001	-5.18899E-004	0.00000E+000	-6.54012E-001	0.00000E+000	9	...........
	18829	753.2	-6.58076E-001	-5.63523E-004	0.00000E+000	-6.58014E-001	0.00000E+000	9	...........
	18831	753.28	-6.62062E-001	-6.05331E-004	0.00000E+000	-6.62016E-001	0.00000E+000	9	...........
	18833	753.36	-6.66068E-001	-6.45628E-004	0.00000E+000	-6.66019E-001	0.00000E+000	9	...........
	18835	753.44	-6.70090E-001	-6.81514E-004	0.00000E+000	-6.70021E-001	0.00000E+000	9	...........
	18837	753.52	-6.74048E-001	-7.10674E-004	0.00000E+000	-6.73973E-001	0.00000E+000	9	...........
	18839	753.6	-6.78029E-001	-7.36843E-004	0.00000E+000	-6.77975E-001	0.00000E+000	9	...........
	18841	753.68	-6.82045E-001	-7.57751E-004	0.00000E+000	-6.81977E-001	0.00000E+000	9	...........
	18843	753.76	-6.86047E-001	-7.74251E-004	0.00000E+000	-6.85979E-001	0.00000E+000	9	...........
	18845	753.84	-6.90029E-001	-7.87547E-004	0.00000E+000	-6.89981E-001	0.00000E+000	9	...........
	18847	753.92	-6.94058E-001	-7.96567E-004	0.00000E+000	-6.93983E-001	0.00000E+000	9	...........
	18849	754	-6.98056E-001	-8.02460E-004	0.00000E+000	-6.97985E-001	0.00000E+000	9	...........
	18851	754.08	-7.02051E-001	-8.06492E-004	0.00000E+000	-7.01987E-001	0.00000E+000	9	...........
	18853	754.16	-7.06061E-001	-8.09504E-004	0.00000E+000	-7.05989E-001	0.00000E+000	9	...........
	18855	754.24	-7.10049E-001	-8.12208E-004	0.00000E+000	-7.09991E-001	0.00000E+000	9	...........
	18857	754.32	-7.14047E-001	-8.14376E-004	0.00000E+000	-7.13993E-001	0.00000E+000	9	...........
	18859	754.4	-7.18070E-001	-8.16799E-004	0.00000E+000	-7.17995E-001	0.00000E+000	9	...........
	18861	754.48	-7.22049E-001	-8.19766E-004	0.00000E+000	-7.21997E-001	0.00000E+000	9	...........
	18863	754.56	-7.26060E-001	-8.25070E-004	0.00000E+000	-7.25999E-001	0.00000E+000	9	...........
	18865	754.64	-7.30052E-001	-8.32632E-004	0.00000E+000	-7.30001E-001	0.00000E+000	9	...........
	18867	754.72	-7.34072E-001	-8.41795E-004	0.00000E+000	-7.34003E-001	0.00000E+000	9	...........
	18869	754.8	-7.38057E-001	-8.52831E-004	0.00000E+000	-7.38005E-001	0.00000E+000	9	...........
	18871	754.88	-7.42049E-001	-8.66854E-004	0.00000E+000	-7.42007E-001	0.00000E+000	9	...........
	18873	754.96	-7.46064E-001	-8.84178E-004	0.00000E+000	-7.46009E-001	0.00000E+000	9	...........
	18875	755.04	-7.50085E-001	-9.04376E-004	0.00000E+000	-7.50012E-001	0.00000E+000	10	...........
	18877	755.12	-7.54087E-001	-9.29494E-004	0.00000E+000	-7.54014E-001	0.00000E+000	10	...........
	18879	755.2	-7.58090E-001	-9.57649E-004	0.00000E+000	-7.58016E-001	0.00000E+000	10	...........
	18881	755.28	-7.62087E-001	-9.90154E-004	0.00000E+000	-7.62018E-001	0.00000E+000	10	...........
	18883	755.36	-7.66077E-001	-1.02787E-003	0.00000E+000	-7.66020E-001	0.00000E+000	10	...........
	18885	755.44	-7.70069E-001	-1.06965E-003	0.00000E+000	-7.69972E-001	0.00000E+000	10	...........
	18887	755.52	-7.74056E-001	-1.11818E-003	0.00000E+000	-7.73974E-001	0.00000E+000	10	...........
	18889	755.6	-7.78052E-001	-1.17114E-003	0.00000E+000	-7.77976E-001	0.00000E+000	10	...........
	18891	755.68	-7.82056E-001	-1.23106E-003	0.00000E+000	-7.81978E-001	0.00000E+000	10	...........
	18893	755.76	-7.86059E-001	-1.29803E-003	0.00000E+000	-7.85980E-001	0.00000E+000	10	...........
	18895	755.84	-7.90057E-001	-1.37296E-003	0.00000E+000	-7.89982E-001	0.00000E+000	10	...........
	18897	755.92	-7.94044E-001	-1.45490E-003	0.00000E+000	-7.93984E-001	0.00000E+000	10	...........
	18899	756	-7.98058E-001	-1.54276E-003	0.00000E+000	-7.97986E-001	0.00000E+000	10	...........
	18900	756.04	-8.00063E-001	-1.58948E-003	0.00000E+000	-7.99987E-001	0.00000E+000	10	...........