File: CV data/012615_KM_baseline2_160mmhg.txt
EXPLAIN
TAG	CV
TITLE	LABEL	Cyclic Voltammetry	Test &Identifier
DATE	LABEL	1/26/2015	Date
TIME	LABEL	15:48:15	Time
NOTES	NOTES	1	&Notes...

PSTAT	PSTAT	IFC1000-06010	Potentiostat
VINIT	POTEN	1.00000E+000	F	Initial &E (V)
VLIMIT1	POTEN	-8.00000E-001	F	Scan Limit &1 (V)
VLIMIT2	POTEN	1.00000E+000	F	Scan Limit &2 (V)
VFINAL	POTEN	-8.00000E-001	F	Final &E (V)
SCANRATE	QUANT	4.99999E+001	&Scan Rate (mV/s)
STEPSIZE	QUANT	2.00000E+000	St&ep Size (mV)
CYCLES	IQUANT	6	C&ycles (#)
IMODE	SELECTOR	0	I/E Range &Mode
IRANGE	QUANT	1.00000E+001	&Max Current (mA)
AREA	QUANT	1.00000E+000	Electrode &Area (cm^2)
ELECTRODETYPE	SELECTOR	0	Electrode Type
STRIPPING	TOGGLE	F	Used for Stripping
POLARITY	TOGGLE	F	Signal Polarity
CONDIT	TWOPARAM	F	1.50000E+001	0.00000E+000	Conditionin&g	Time(s)	E(V)
DELAY	TWOPARAM	T	2.00000E+001	0.00000E+000	Init. De&lay	Time(s)	Stab.(mV/s)
EQDELAY	QUANT	5.00000E+000	Equil. &Time (s)
IRCOMP	SELECTOR	1	IRCom&p
PFCOR	QUANT	5.00000E+001	PF Corr. (ohm)
SAMPLINGMODE	SELECTOR	1	Sampling &Mode
OCVCURVE	TABLE	77
	Pt	T	Vf	Vm	Ach	Over
	#	s	V vs. Ref.	V	V	bits
	0	0.258333	2.94492E-001	2.94492E-001	0.00000E+000	...........
	1	0.516667	2.94493E-001	2.94513E-001	0.00000E+000	...........
	2	0.775	2.94495E-001	2.94536E-001	0.00000E+000	...........
	3	1.03333	2.94503E-001	2.94558E-001	0.00000E+000	...........
	4	1.29167	2.94516E-001	2.94586E-001	0.00000E+000	...........
	5	1.55	2.94535E-001	2.94608E-001	0.00000E+000	...........
	6	1.80833	2.94558E-001	2.94638E-001	0.00000E+000	...........
	7	2.06667	2.94582E-001	2.94649E-001	0.00000E+000	...........
	8	2.325	2.94607E-001	2.94681E-001	0.00000E+000	...........
	9	2.58333	2.94630E-001	2.94704E-001	0.00000E+000	...........
	10	2.84167	2.94654E-001	2.94738E-001	0.00000E+000	...........
	11	3.1	2.94679E-001	2.94752E-001	0.00000E+000	...........
	12	3.35833	2.94704E-001	2.94780E-001	0.00000E+000	...........
	13	3.61667	2.94730E-001	2.94818E-001	0.00000E+000	...........
	14	3.875	2.94755E-001	2.94842E-001	0.00000E+000	...........
	15	4.13333	2.94783E-001	2.94872E-001	0.00000E+000	...........
	16	4.39167	2.94811E-001	2.94906E-001	0.00000E+000	...........
	17	4.65	2.94841E-001	2.94929E-001	0.00000E+000	...........
	18	4.90833	2.94871E-001	2.94958E-001	0.00000E+000	...........
	19	5.16667	2.94900E-001	2.94976E-001	0.00000E+000	...........
	20	5.425	2.94927E-001	2.95008E-001	0.00000E+000	...........
	21	5.68333	2.94953E-001	2.95029E-001	0.00000E+000	...........
	22	5.94167	2.94978E-001	2.95053E-001	0.00000E+000	...........
	23	6.2	2.95003E-001	2.95078E-001	0.00000E+000	...........
	24	6.45833	2.95028E-001	2.95101E-001	0.00000E+000	...........
	25	6.71667	2.95052E-001	2.95124E-001	0.00000E+000	...........
	26	6.975	2.95075E-001	2.95147E-001	0.00000E+000	...........
	27	7.23333	2.95099E-001	2.95176E-001	0.00000E+000	...........
	28	7.49167	2.95123E-001	2.95197E-001	0.00000E+000	...........
	29	7.75	2.95147E-001	2.95231E-001	0.00000E+000	...........
	30	8.00833	2.95172E-001	2.95249E-001	0.00000E+000	...........
	31	8.26667	2.95198E-001	2.95274E-001	0.00000E+000	...........
	32	8.525	2.95223E-001	2.95300E-001	0.00000E+000	...........
	33	8.78333	2.95248E-001	2.95318E-001	0.00000E+000	...........
	34	9.04167	2.95272E-001	2.95348E-001	0.00000E+000	...........
	35	9.3	2.95296E-001	2.95361E-001	0.00000E+000	...........
	36	9.5583	2.95319E-001	2.95392E-001	0.00000E+000	...........
	37	9.8167	2.95342E-001	2.95427E-001	0.00000E+000	...........
	38	10.075	2.95366E-001	2.95450E-001	0.00000E+000	...........
	39	10.3333	2.95393E-001	2.95483E-001	0.00000E+000	...........
	40	10.5917	2.95421E-001	2.95500E-001	0.00000E+000	...........
	41	10.85	2.95449E-001	2.95535E-001	0.00000E+000	...........
	42	11.1083	2.95476E-001	2.95559E-001	0.00000E+000	...........
	43	11.3667	2.95503E-001	2.95577E-001	0.00000E+000	...........
	44	11.625	2.95529E-001	2.95596E-001	0.00000E+000	...........
	45	11.8833	2.95553E-001	2.95620E-001	0.00000E+000	...........
	46	12.1417	2.95575E-001	2.95631E-001	0.00000E+000	...........
	47	12.4	2.95595E-001	2.95653E-001	0.00000E+000	...........
	48	12.6583	2.95615E-001	2.95677E-001	0.00000E+000	...........
	49	12.9167	2.95634E-001	2.95702E-001	0.00000E+000	...........
	50	13.175	2.95654E-001	2.95722E-001	0.00000E+000	...........
	51	13.4333	2.95676E-001	2.95748E-001	0.00000E+000	...........
	52	13.6917	2.95699E-001	2.95769E-001	0.00000E+000	...........
	53	13.95	2.95722E-001	2.95794E-001	0.00000E+000	...........
	54	14.2083	2.95745E-001	2.95824E-001	0.00000E+000	...........
	55	14.4667	2.95769E-001	2.95842E-001	0.00000E+000	...........
	56	14.725	2.95794E-001	2.95870E-001	0.00000E+000	...........
	57	14.9833	2.95819E-001	2.95898E-001	0.00000E+000	...........
	58	15.2417	2.95843E-001	2.95920E-001	0.00000E+000	...........
	59	15.5	2.95869E-001	2.95945E-001	0.00000E+000	...........
	60	15.7583	2.95894E-001	2.95971E-001	0.00000E+000	...........
	61	16.0167	2.95919E-001	2.95994E-001	0.00000E+000	...........
	62	16.275	2.95944E-001	2.96020E-001	0.00000E+000	...........
	63	16.5333	2.95968E-001	2.96041E-001	0.00000E+000	...........
	64	16.7917	2.95993E-001	2.96063E-001	0.00000E+000	...........
	65	17.05	2.96016E-001	2.96089E-001	0.00000E+000	...........
	66	17.3083	2.96040E-001	2.96115E-001	0.00000E+000	...........
	67	17.5667	2.96063E-001	2.96135E-001	0.00000E+000	...........
	68	17.825	2.96087E-001	2.96157E-001	0.00000E+000	...........
	69	18.0833	2.96111E-001	2.96186E-001	0.00000E+000	...........
	70	18.3417	2.96134E-001	2.96214E-001	0.00000E+000	...........
	71	18.6	2.96159E-001	2.96234E-001	0.00000E+000	...........
	72	18.8583	2.96183E-001	2.96248E-001	0.00000E+000	...........
	73	19.1167	2.96207E-001	2.96272E-001	0.00000E+000	...........
	74	19.375	2.96229E-001	2.96307E-001	0.00000E+000	...........
	75	19.6333	2.96251E-001	2.96323E-001	0.00000E+000	...........
	76	19.8917	2.96275E-001	2.96349E-001	0.00000E+000	...........
EOC	QUANT	0.2962747	Open Circuit (V)
PSTATMODEL	IQUANT	48	Pstat Model
PSTATSECTION	LABEL	IFC1000-06010	Pstat Section
PSTATSERIALNO	LABEL	06010	Pstat Serial Number
CTRLMODE	IQUANT	1	Control Mode
IESTAB	IQUANT	2	I/E Stability
CASPEED	IQUANT	2	Control Amp Speed
CONVENTION	IQUANT	1	Current Convention
ICHRANGE	IQUANT	2	Ich Range
ICHRANGEMODE	TOGGLE	F	Ich Auto Range
ICHOFFSETENABLE	TOGGLE	F	Ich Offset Enable
ICHOFFSET	QUANT	0	Ich Offset (V)
ICHFILTER	IQUANT	3	Ich Filter
VCHRANGE	IQUANT	2	Vch Range
VCHRANGEMODE	TOGGLE	F	Vch Auto Range
VCHOFFSETENABLE	TOGGLE	F	Vch Offset Enable
VCHOFFSET	QUANT	0	Vch Offset (V)
VCHFILTER	IQUANT	3	Vch Filter
IERANGELOWERLIMIT	IQUANT	4	I/E Range Lower Limit
IERANGEMODE	TOGGLE	T	I/E AutoRange
IERANGE	IQUANT	11	I/E Range
ACHSELECT	IQUANT	4	Ach Select
CABLEID	IQUANT	14	Cable ID
DCCALDATE	LABEL	9/18/2014	DC Calibration Date
ACCALDATE	LABEL	9/18/2014	AC Calibration Date
FRAMEWORKVERSION	QUANT	6.25	Framework Version
INSTRUMENTVERSION	LABEL	3.26	Instrument Version
CURVE1	TABLE
	Pt	T	Vf	Im	Vu	Sig	Ach	IERange	Over
	#	s	V vs. Ref.	A	V	V	V	#	bits
	0	0.04	1.00012E+000	1.01041E-004	0.00000E+000	9.99985E-001	0.00000E+000	11	...........
	4	0.2	9.92109E-001	8.07492E-005	0.00000E+000	9.91981E-001	0.00000E+000	9	...........
	8	0.36	9.84082E-001	6.84514E-005	0.00000E+000	9.83977E-001	0.00000E+000	8	...........
	12	0.52	9.76142E-001	5.80880E-005	0.00000E+000	9.76022E-001	0.00000E+000	8	...........
	16	0.68	9.68115E-001	4.93645E-005	0.00000E+000	9.68018E-001	0.00000E+000	8	...........
	20	0.84	9.60093E-001	4.23872E-005	0.00000E+000	9.60014E-001	0.00000E+000	8	...........
	24	1	9.52109E-001	3.60215E-005	0.00000E+000	9.52010E-001	0.00000E+000	8	...........
	28	1.16	9.44097E-001	3.09830E-005	0.00000E+000	9.44006E-001	0.00000E+000	8	...........
	32	1.32	9.36108E-001	2.64865E-005	0.00000E+000	9.36002E-001	0.00000E+000	8	...........
	36	1.48	9.28081E-001	2.26261E-005	0.00000E+000	9.27998E-001	0.00000E+000	8	...........
	40	1.64	9.20065E-001	1.91911E-005	0.00000E+000	9.19994E-001	0.00000E+000	8	...........
	44	1.8	9.12089E-001	1.61051E-005	0.00000E+000	9.11990E-001	0.00000E+000	8	...........
	48	1.96	9.04094E-001	1.38354E-005	0.00000E+000	9.03986E-001	0.00000E+000	8	...........
	52	2.12	8.96069E-001	1.13617E-005	0.00000E+000	8.95981E-001	0.00000E+000	8	...........
	56	2.28	8.88080E-001	9.34501E-006	0.00000E+000	8.87977E-001	0.00000E+000	8	...........
	60	2.44	8.80052E-001	4.03588E-006	0.00000E+000	8.80023E-001	0.00000E+000	7	....ih..i..
	64	2.6	8.72091E-001	2.27984E-006	0.00000E+000	8.72019E-001	0.00000E+000	7	.....h.....
	68	2.76	8.64055E-001	1.30644E-006	0.00000E+000	8.64015E-001	0.00000E+000	7	.....h.....
	72	2.92	8.56059E-001	-4.71456E-007	0.00000E+000	8.56011E-001	0.00000E+000	7	.....h.....
	76	3.08	8.48071E-001	-1.18620E-006	0.00000E+000	8.48007E-001	0.00000E+000	7	.....h.....
	80	3.24	8.40051E-001	-2.35948E-006	0.00000E+000	8.40003E-001	0.00000E+000	7	.....h.....
	84	3.4	8.32049E-001	-3.46305E-006	0.00000E+000	8.31999E-001	0.00000E+000	7	.....h.....
	88	3.56	8.24046E-001	-3.66415E-006	0.00000E+000	8.23995E-001	0.00000E+000	7	.....h.....
	92	3.72	8.16043E-001	-5.25397E-006	0.00000E+000	8.15991E-001	0.00000E+000	7	.....h.....
	96	3.88	8.08066E-001	-5.48232E-006	0.00000E+000	8.07986E-001	0.00000E+000	7	...........
	100	4.04	8.00030E-001	-6.24930E-006	0.00000E+000	7.99982E-001	0.00000E+000	7	...........
	104	4.2	7.92027E-001	-7.01616E-006	0.00000E+000	7.91978E-001	0.00000E+000	7	...........
	108	4.36	7.84121E-001	-3.88956E-006	0.00000E+000	7.84024E-001	0.00000E+000	8	...........
	112	4.52	7.76105E-001	-4.60198E-006	0.00000E+000	7.76020E-001	0.00000E+000	8	...........
	116	4.68	7.68063E-001	-5.17451E-006	0.00000E+000	7.68016E-001	0.00000E+000	8	...........
	120	4.84	7.60090E-001	-5.44341E-006	0.00000E+000	7.60012E-001	0.00000E+000	8	...........
	124	5	7.52081E-001	-6.33136E-006	0.00000E+000	7.52008E-001	0.00000E+000	8	...........
	128	5.16	7.44083E-001	-6.50908E-006	0.00000E+000	7.44004E-001	0.00000E+000	8	...........
	132	5.32	7.36063E-001	-7.28364E-006	0.00000E+000	7.36000E-001	0.00000E+000	8	...........
	136	5.48	7.28067E-001	-7.73953E-006	0.00000E+000	7.27995E-001	0.00000E+000	8	...........
	140	5.64	7.20060E-001	-8.09689E-006	0.00000E+000	7.19991E-001	0.00000E+000	8	...........
	144	5.8	7.12069E-001	-8.80659E-006	0.00000E+000	7.11987E-001	0.00000E+000	8	...........
	148	5.96	7.04065E-001	-8.97950E-006	0.00000E+000	7.03983E-001	0.00000E+000	8	...........
	152	6.12	6.96073E-001	-9.79120E-006	0.00000E+000	6.95979E-001	0.00000E+000	8	...........
	156	6.28	6.88103E-001	-1.00501E-005	0.00000E+000	6.88025E-001	0.00000E+000	8	...........
	160	6.44	6.80115E-001	-1.05778E-005	0.00000E+000	6.80021E-001	0.00000E+000	8	...........
	164	6.6	6.72097E-001	-1.12403E-005	0.00000E+000	6.72017E-001	0.00000E+000	8	...........
	168	6.76	6.64085E-001	-1.14172E-005	0.00000E+000	6.64013E-001	0.00000E+000	8	...........
	172	6.92	6.56090E-001	-1.22638E-005	0.00000E+000	6.56009E-001	0.00000E+000	8	...........
	176	7.08	6.48100E-001	-1.25558E-005	0.00000E+000	6.48004E-001	0.00000E+000	8	...........
	180	7.24	6.40058E-001	-1.30173E-005	0.00000E+000	6.40000E-001	0.00000E+000	8	...........
	184	7.4	6.32082E-001	-1.36826E-005	0.00000E+000	6.31996E-001	0.00000E+000	8	...........
	188	7.56	6.24068E-001	-1.39257E-005	0.00000E+000	6.23992E-001	0.00000E+000	8	...........
	192	7.72	6.16071E-001	-1.48577E-005	0.00000E+000	6.15988E-001	0.00000E+000	8	...........
	196	7.88	6.08065E-001	-1.50536E-005	0.00000E+000	6.07984E-001	0.00000E+000	8	...........
	200	8.04	6.00052E-001	-1.56135E-005	0.00000E+000	5.99980E-001	0.00000E+000	8	...........
	204	8.2	5.92111E-001	-1.62273E-005	0.00000E+000	5.92026E-001	0.00000E+000	8	...........
	208	8.36	5.84089E-001	-1.66148E-005	0.00000E+000	5.84022E-001	0.00000E+000	8	...........
	212	8.52	5.76077E-001	-1.74817E-005	0.00000E+000	5.76018E-001	0.00000E+000	8	...........
	216	8.68	5.68077E-001	-1.79368E-005	0.00000E+000	5.68013E-001	0.00000E+000	8	...........
	220	8.84	5.60060E-001	-1.86064E-005	0.00000E+000	5.60009E-001	0.00000E+000	8	...........
	224	9	5.52069E-001	-1.93335E-005	0.00000E+000	5.52005E-001	0.00000E+000	8	...........
	228	9.16	5.44065E-001	-1.96683E-005	0.00000E+000	5.44001E-001	0.00000E+000	8	...........
	232	9.32	5.36042E-001	-2.06839E-005	0.00000E+000	5.35997E-001	0.00000E+000	8	...........
	236	9.48	5.28056E-001	-2.10774E-005	0.00000E+000	5.27993E-001	0.00000E+000	8	...........
	240	9.64	5.20041E-001	-2.19520E-005	0.00000E+000	5.19989E-001	0.00000E+000	8	...........
	244	9.8	5.12011E-001	-2.26823E-005	0.00000E+000	5.11985E-001	0.00000E+000	8	...........
	248	9.96	5.04041E-001	-2.32931E-005	0.00000E+000	5.03981E-001	0.00000E+000	8	...........
	252	10.12	4.96023E-001	-2.44066E-005	0.00000E+000	4.95977E-001	0.00000E+000	8	...........
	256	10.28	4.88075E-001	-2.48949E-005	0.00000E+000	4.88023E-001	0.00000E+000	8	...........
	260	10.44	4.80066E-001	-2.59994E-005	0.00000E+000	4.80018E-001	0.00000E+000	8	...........
	264	10.6	4.72062E-001	-2.68420E-005	0.00000E+000	4.72014E-001	0.00000E+000	8	...........
	268	10.76	4.64071E-001	-2.76100E-005	0.00000E+000	4.64010E-001	0.00000E+000	8	...........
	272	10.92	4.56048E-001	-2.88813E-005	0.00000E+000	4.56006E-001	0.00000E+000	8	...........
	276	11.08	4.48041E-001	-2.96289E-005	0.00000E+000	4.48002E-001	0.00000E+000	8	...........
	280	11.24	4.40047E-001	-3.08587E-005	0.00000E+000	4.39998E-001	0.00000E+000	8	...........
	284	11.4	4.32025E-001	-3.18690E-005	0.00000E+000	4.31994E-001	0.00000E+000	8	...........
	288	11.56	4.24045E-001	-3.29636E-005	0.00000E+000	4.23990E-001	0.00000E+000	8	...........
	292	11.72	4.16016E-001	-3.44785E-005	0.00000E+000	4.15986E-001	0.00000E+000	8	...........
	296	11.88	4.08028E-001	-3.54853E-005	0.00000E+000	4.07982E-001	0.00000E+000	8	...........
	300	12.04	4.00019E-001	-3.71349E-005	0.00000E+000	3.99977E-001	0.00000E+000	8	...........
	304	12.2	3.92054E-001	-3.82907E-005	0.00000E+000	3.92023E-001	0.00000E+000	8	...........
	308	12.36	3.84032E-001	-3.98081E-005	0.00000E+000	3.84019E-001	0.00000E+000	8	...........
	312	12.52	3.76050E-001	-4.16367E-005	0.00000E+000	3.76015E-001	0.00000E+000	8	...........
	316	12.68	3.68034E-001	-4.29702E-005	0.00000E+000	3.68011E-001	0.00000E+000	8	...........
	320	12.84	3.60057E-001	-4.50690E-005	0.00000E+000	3.60007E-001	0.00000E+000	8	...........
	324	13	3.52040E-001	-4.68475E-005	0.00000E+000	3.52003E-001	0.00000E+000	8	...........
	328	13.16	3.44027E-001	-4.86463E-005	0.00000E+000	3.43999E-001	0.00000E+000	8	...........
	332	13.32	3.36032E-001	-5.11123E-005	0.00000E+000	3.35995E-001	0.00000E+000	8	...........
	336	13.48	3.28015E-001	-5.30579E-005	0.00000E+000	3.27991E-001	0.00000E+000	8	...........
	340	13.64	3.19999E-001	-5.57100E-005	0.00000E+000	3.19986E-001	0.00000E+000	8	...........
	344	13.8	3.12007E-001	-5.81922E-005	0.00000E+000	3.11982E-001	0.00000E+000	8	...........
	348	13.96	3.04001E-001	-6.10015E-005	0.00000E+000	3.03978E-001	0.00000E+000	8	...........
	352	14.12	2.96062E-001	-6.41357E-005	0.00000E+000	2.96024E-001	0.00000E+000	8	...........
	356	14.28	2.88049E-001	-6.71550E-005	0.00000E+000	2.88020E-001	0.00000E+000	8	...........
	360	14.44	2.80039E-001	-7.10117E-005	0.00000E+000	2.80016E-001	0.00000E+000	8	...........
	364	14.6	2.72038E-001	-7.46870E-005	0.00000E+000	2.72012E-001	0.00000E+000	8	...........
	368	14.76	2.64050E-001	-7.89751E-005	0.00000E+000	2.64008E-001	0.00000E+000	8	...........
	372	14.92	2.56025E-001	-8.36687E-005	0.00000E+000	2.56004E-001	0.00000E+000	8	...........
	376	15.08	2.48034E-001	-8.85792E-005	0.00000E+000	2.48000E-001	0.00000E+000	8	...........
	380	15.24	2.39999E-001	-9.47699E-005	0.00000E+000	2.39995E-001	0.00000E+000	9	...........
	384	15.4	2.32033E-001	-1.00738E-004	0.00000E+000	2.31991E-001	0.00000E+000	9	...........
	388	15.56	2.23990E-001	-1.07796E-004	0.00000E+000	2.23987E-001	0.00000E+000	9	...........
	392	15.72	2.15992E-001	-1.15788E-004	0.00000E+000	2.15983E-001	0.00000E+000	9	...........
	396	15.88	2.08001E-001	-1.24324E-004	0.00000E+000	2.07979E-001	0.00000E+000	9	...........
	400	16.04	2.00040E-001	-1.34607E-004	0.00000E+000	2.00025E-001	0.00000E+000	9	...........
	404	16.2	1.92014E-001	-1.45832E-004	0.00000E+000	1.92021E-001	0.00000E+000	9	...........
	408	16.36	1.84040E-001	-1.59188E-004	0.00000E+000	1.84017E-001	0.00000E+000	9	...........
	412	16.52	1.76021E-001	-1.74668E-004	0.00000E+000	1.76013E-001	0.00000E+000	9	...........
	416	16.68	1.68024E-001	-1.92525E-004	0.00000E+000	1.68009E-001	0.00000E+000	9	...........
	420	16.84	1.60010E-001	-2.14287E-004	0.00000E+000	1.60005E-001	0.00000E+000	9	...........
	424	17	1.51984E-001	-2.39318E-004	0.00000E+000	1.52000E-001	0.00000E+000	9	...........
	428	17.16	1.43995E-001	-2.69694E-004	0.00000E+000	1.43996E-001	0.00000E+000	9	...........
	432	17.32	1.35987E-001	-3.06470E-004	0.00000E+000	1.35992E-001	0.00000E+000	9	...........
	436	17.48	1.27982E-001	-3.50252E-004	0.00000E+000	1.27988E-001	0.00000E+000	9	...........
	440	17.64	1.19984E-001	-4.03922E-004	0.00000E+000	1.19984E-001	0.00000E+000	9	...........
	444	17.8	1.11961E-001	-4.67454E-004	0.00000E+000	1.11980E-001	0.00000E+000	9	...........
	448	17.96	1.04043E-001	-5.42359E-004	0.00000E+000	1.04026E-001	0.00000E+000	9	...........
	452	18.12	9.60092E-002	-6.29178E-004	0.00000E+000	9.60217E-002	0.00000E+000	9	...........
	456	18.28	8.80177E-002	-7.25143E-004	0.00000E+000	8.80176E-002	0.00000E+000	9	...........
	460	18.44	8.00150E-002	-8.26158E-004	0.00000E+000	8.00135E-002	0.00000E+000	9	...........
	464	18.6	7.19956E-002	-9.22755E-004	0.00000E+000	7.20094E-002	0.00000E+000	10	...........
	468	18.76	6.39870E-002	-1.01263E-003	0.00000E+000	6.40053E-002	0.00000E+000	10	...........
	472	18.92	5.59955E-002	-1.08800E-003	0.00000E+000	5.60012E-002	0.00000E+000	10	...........
	476	19.08	4.79838E-002	-1.14670E-003	0.00000E+000	4.79971E-002	0.00000E+000	10	...........
	480	19.24	3.99797E-002	-1.19029E-003	0.00000E+000	3.99930E-002	0.00000E+000	10	...........
	484	19.4	3.19744E-002	-1.21916E-003	0.00000E+000	3.19889E-002	0.00000E+000	10	...........
	488	19.56	2.39686E-002	-1.23760E-003	0.00000E+000	2.39848E-002	0.00000E+000	10	...........
	492	19.72	1.59763E-002	-1.24626E-003	0.00000E+000	1.59808E-002	0.00000E+000	10	...........
	496	19.88	8.02131E-003	-1.24587E-003	0.00000E+000	8.02667E-003	0.00000E+000	10	...........
	500	20.04	4.39934E-006	-1.24085E-003	0.00000E+000	2.25753E-005	0.00000E+000	10	...........
	504	20.2	-8.01418E-003	-1.23002E-003	0.00000E+000	-7.98152E-003	0.00000E+000	10	...........
	508	20.36	-1.60273E-002	-1.21711E-003	0.00000E+000	-1.59856E-002	0.00000E+000	10	...........
	512	20.52	-2.40017E-002	-1.20160E-003	0.00000E+000	-2.39897E-002	0.00000E+000	10	...........
	516	20.68	-3.20280E-002	-1.18643E-003	0.00000E+000	-3.19938E-002	0.00000E+000	10	...........
	520	20.84	-4.00395E-002	-1.17349E-003	0.00000E+000	-3.99979E-002	0.00000E+000	10	...........
	524	21	-4.80191E-002	-1.16383E-003	0.00000E+000	-4.80020E-002	0.00000E+000	10	...........
	528	21.16	-5.60431E-002	-1.15811E-003	0.00000E+000	-5.60061E-002	0.00000E+000	10	...........
	532	21.32	-6.40608E-002	-1.15444E-003	0.00000E+000	-6.40102E-002	0.00000E+000	10	...........
	536	21.48	-7.20366E-002	-1.15302E-003	0.00000E+000	-7.20143E-002	0.00000E+000	10	...........
	540	21.64	-8.00621E-002	-1.15298E-003	0.00000E+000	-8.00184E-002	0.00000E+000	10	...........
	544	21.8	-8.80590E-002	-1.15294E-003	0.00000E+000	-8.80225E-002	0.00000E+000	10	...........
	548	21.96	-9.60221E-002	-1.15332E-003	0.00000E+000	-9.59766E-002	0.00000E+000	10	...........
	552	22.12	-1.04036E-001	-1.15342E-003	0.00000E+000	-1.03981E-001	0.00000E+000	10	...........
	556	22.28	-1.12007E-001	-1.15251E-003	0.00000E+000	-1.11985E-001	0.00000E+000	10	...........
	560	22.44	-1.20016E-001	-1.15091E-003	0.00000E+000	-1.19989E-001	0.00000E+000	10	...........
	564	22.6	-1.28030E-001	-1.14727E-003	0.00000E+000	-1.27993E-001	0.00000E+000	10	...........
	568	22.76	-1.36029E-001	-1.14330E-003	0.00000E+000	-1.35997E-001	0.00000E+000	10	...........
	572	22.92	-1.44033E-001	-1.13678E-003	0.00000E+000	-1.44001E-001	0.00000E+000	10	...........
	576	23.08	-1.52009E-001	-1.12984E-003	0.00000E+000	-1.52005E-001	0.00000E+000	10	...........
	580	23.24	-1.60039E-001	-1.12103E-003	0.00000E+000	-1.60009E-001	0.00000E+000	10	...........
	584	23.4	-1.68047E-001	-1.10984E-003	0.00000E+000	-1.68013E-001	0.00000E+000	10	...........
	588	23.56	-1.76040E-001	-1.09812E-003	0.00000E+000	-1.76018E-001	0.00000E+000	10	...........
	592	23.72	-1.84063E-001	-1.08438E-003	0.00000E+000	-1.84022E-001	0.00000E+000	10	...........
	596	23.88	-1.92002E-001	-1.07119E-003	0.00000E+000	-1.91976E-001	0.00000E+000	10	...........
	600	24.04	-2.00014E-001	-1.05573E-003	0.00000E+000	-1.99980E-001	0.00000E+000	10	...........
	604	24.2	-2.08025E-001	-1.04021E-003	0.00000E+000	-2.07984E-001	0.00000E+000	10	...........
	608	24.36	-2.16023E-001	-1.02564E-003	0.00000E+000	-2.15988E-001	0.00000E+000	10	...........
	612	24.52	-2.24025E-001	-1.00896E-003	0.00000E+000	-2.23992E-001	0.00000E+000	10	...........
	616	24.68	-2.32056E-001	-9.93768E-004	0.00000E+000	-2.31996E-001	0.00000E+000	10	...........
	620	24.84	-2.40036E-001	-9.75962E-004	0.00000E+000	-2.40000E-001	0.00000E+000	10	...........
	624	25	-2.48053E-001	-9.61643E-004	0.00000E+000	-2.48004E-001	0.00000E+000	10	...........
	628	25.16	-2.56069E-001	-9.42441E-004	0.00000E+000	-2.56009E-001	0.00000E+000	10	...........
	632	25.32	-2.64068E-001	-9.24728E-004	0.00000E+000	-2.64013E-001	0.00000E+000	10	...........
	636	25.48	-2.72067E-001	-9.06688E-004	0.00000E+000	-2.72017E-001	0.00000E+000	10	...........
	640	25.64	-2.80059E-001	-8.90335E-004	0.00000E+000	-2.80021E-001	0.00000E+000	10	...........
	644	25.8	-2.88025E-001	-8.74659E-004	0.00000E+000	-2.87975E-001	0.00000E+000	10	...........
	648	25.96	-2.96029E-001	-8.60338E-004	0.00000E+000	-2.95979E-001	0.00000E+000	10	...........
	652	26.12	-3.04029E-001	-8.46759E-004	0.00000E+000	-3.03983E-001	0.00000E+000	10	...........
	656	26.28	-3.12021E-001	-8.34798E-004	0.00000E+000	-3.11987E-001	0.00000E+000	10	...........
	660	26.44	-3.20019E-001	-8.23210E-004	0.00000E+000	-3.19991E-001	0.00000E+000	10	...........
	664	26.6	-3.28035E-001	-8.12354E-004	0.00000E+000	-3.27995E-001	0.00000E+000	10	...........
	668	26.76	-3.36044E-001	-8.03036E-004	0.00000E+000	-3.36000E-001	0.00000E+000	10	...........
	672	26.92	-3.44036E-001	-7.95515E-004	0.00000E+000	-3.44004E-001	0.00000E+000	9	...........
	676	27.08	-3.52041E-001	-7.87425E-004	0.00000E+000	-3.52008E-001	0.00000E+000	9	...........
	680	27.24	-3.60071E-001	-7.79585E-004	0.00000E+000	-3.60012E-001	0.00000E+000	9	...........
	684	27.4	-3.68066E-001	-7.72142E-004	0.00000E+000	-3.68016E-001	0.00000E+000	9	...........
	688	27.56	-3.76071E-001	-7.65684E-004	0.00000E+000	-3.76020E-001	0.00000E+000	9	...........
	692	27.72	-3.84003E-001	-7.58678E-004	0.00000E+000	-3.83974E-001	0.00000E+000	9	...........
	696	27.88	-3.92022E-001	-7.53656E-004	0.00000E+000	-3.91978E-001	0.00000E+000	9	...........
	700	28.04	-4.00026E-001	-7.48156E-004	0.00000E+000	-3.99982E-001	0.00000E+000	9	...........
	704	28.2	-4.08009E-001	-7.43113E-004	0.00000E+000	-4.07986E-001	0.00000E+000	9	...........
	708	28.36	-4.16035E-001	-7.39553E-004	0.00000E+000	-4.15990E-001	0.00000E+000	9	...........
	712	28.52	-4.24054E-001	-7.35368E-004	0.00000E+000	-4.23995E-001	0.00000E+000	9	...........
	716	28.68	-4.32036E-001	-7.32990E-004	0.00000E+000	-4.31999E-001	0.00000E+000	9	...........
	720	28.84	-4.40060E-001	-7.30500E-004	0.00000E+000	-4.40003E-001	0.00000E+000	9	...........
	724	29	-4.48039E-001	-7.29193E-004	0.00000E+000	-4.48007E-001	0.00000E+000	9	...........
	728	29.16	-4.56061E-001	-7.28888E-004	0.00000E+000	-4.56011E-001	0.00000E+000	9	...........
	732	29.32	-4.64087E-001	-7.28510E-004	0.00000E+000	-4.64015E-001	0.00000E+000	9	...........
	736	29.48	-4.72079E-001	-7.30610E-004	0.00000E+000	-4.72019E-001	0.00000E+000	9	...........
	740	29.64	-4.80036E-001	-7.31210E-004	0.00000E+000	-4.79973E-001	0.00000E+000	9	...........
	744	29.8	-4.88054E-001	-7.34312E-004	0.00000E+000	-4.87977E-001	0.00000E+000	9	...........
	748	29.96	-4.96044E-001	-7.38036E-004	0.00000E+000	-4.95981E-001	0.00000E+000	9	...........
	752	30.12	-5.04056E-001	-7.41523E-004	0.00000E+000	-5.03986E-001	0.00000E+000	9	...........
	756	30.28	-5.12048E-001	-7.47347E-004	0.00000E+000	-5.11990E-001	0.00000E+000	9	...........
	760	30.44	-5.20051E-001	-7.53105E-004	0.00000E+000	-5.19994E-001	0.00000E+000	9	...........
	764	30.6	-5.28050E-001	-7.60619E-004	0.00000E+000	-5.27998E-001	0.00000E+000	9	...........
	768	30.76	-5.36040E-001	-7.68854E-004	0.00000E+000	-5.36002E-001	0.00000E+000	9	...........
	772	30.92	-5.44057E-001	-7.77175E-004	0.00000E+000	-5.44006E-001	0.00000E+000	9	...........
	776	31.08	-5.52069E-001	-7.87397E-004	0.00000E+000	-5.52010E-001	0.00000E+000	9	...........
	780	31.24	-5.60061E-001	-7.95762E-004	0.00000E+000	-5.60014E-001	0.00000E+000	9	...........
	784	31.4	-5.68080E-001	-8.04121E-004	0.00000E+000	-5.68018E-001	0.00000E+000	9	...........
	788	31.56	-5.76013E-001	-8.10843E-004	0.00000E+000	-5.75972E-001	0.00000E+000	9	...........
	792	31.72	-5.84027E-001	-8.17014E-004	0.00000E+000	-5.83977E-001	0.00000E+000	9	...........
	796	31.88	-5.92046E-001	-8.23665E-004	0.00000E+000	-5.91981E-001	0.00000E+000	9	...........
	800	32.04	-6.00035E-001	-8.24842E-004	0.00000E+000	-5.99985E-001	0.00000E+000	9	...........
	804	32.2	-6.08036E-001	-8.27195E-004	0.00000E+000	-6.07989E-001	0.00000E+000	9	...........
	808	32.36	-6.16061E-001	-8.27125E-004	0.00000E+000	-6.15993E-001	0.00000E+000	9	...........
	812	32.52	-6.24050E-001	-8.24406E-004	0.00000E+000	-6.23997E-001	0.00000E+000	9	...........
	816	32.68	-6.32054E-001	-8.21117E-004	0.00000E+000	-6.32001E-001	0.00000E+000	9	...........
	820	32.84	-6.40059E-001	-8.14465E-004	0.00000E+000	-6.40005E-001	0.00000E+000	9	...........
	824	33	-6.48077E-001	-8.07815E-004	0.00000E+000	-6.48009E-001	0.00000E+000	9	...........
	828	33.16	-6.56083E-001	-8.00376E-004	0.00000E+000	-6.56013E-001	0.00000E+000	9	...........
	832	33.32	-6.64072E-001	-7.90414E-004	0.00000E+000	-6.64017E-001	0.00000E+000	9	...........
	836	33.48	-6.72092E-001	-7.82137E-004	0.00000E+000	-6.72022E-001	0.00000E+000	9	...........
	840	33.64	-6.80069E-001	-7.69990E-004	0.00000E+000	-6.79976E-001	0.00000E+000	9	...........
	844	33.8	-6.88041E-001	-7.58606E-004	0.00000E+000	-6.87980E-001	0.00000E+000	9	...........
	848	33.96	-6.96065E-001	-7.44346E-004	0.00000E+000	-6.95984E-001	0.00000E+000	9	...........
	852	34.12	-7.04045E-001	-7.31019E-004	0.00000E+000	-7.03988E-001	0.00000E+000	9	...........
	856	34.28	-7.12067E-001	-7.20594E-004	0.00000E+000	-7.11992E-001	0.00000E+000	9	...........
	860	34.44	-7.20075E-001	-7.11690E-004	0.00000E+000	-7.19996E-001	0.00000E+000	9	...........
	864	34.6	-7.28068E-001	-7.12902E-004	0.00000E+000	-7.28000E-001	0.00000E+000	9	...........
	868	34.76	-7.36072E-001	-7.23131E-004	0.00000E+000	-7.36004E-001	0.00000E+000	9	...........
	872	34.92	-7.44105E-001	-7.49634E-004	0.00000E+000	-7.44008E-001	0.00000E+000	9	...........
	876	35.08	-7.52083E-001	-7.96489E-004	0.00000E+000	-7.52013E-001	0.00000E+000	9	...........
	880	35.24	-7.60092E-001	-8.66137E-004	0.00000E+000	-7.60017E-001	0.00000E+000	9	...........
	884	35.4	-7.68091E-001	-9.60957E-004	0.00000E+000	-7.68021E-001	0.00000E+000	10	...........
	888	35.56	-7.76062E-001	-1.08039E-003	0.00000E+000	-7.75975E-001	0.00000E+000	10	...........
	892	35.72	-7.84078E-001	-1.22776E-003	0.00000E+000	-7.83979E-001	0.00000E+000	10	...........
	896	35.88	-7.92055E-001	-1.40235E-003	0.00000E+000	-7.91983E-001	0.00000E+000	10	...........
	900	36.04	-8.00077E-001	-1.60593E-003	0.00000E+000	-7.99987E-001	0.00000E+000	10	...........
	904	36.2	-7.92051E-001	-9.50850E-004	0.00000E+000	-7.91983E-001	0.00000E+000	10	...........
	908	36.36	-7.84067E-001	-6.58483E-004	0.00000E+000	-7.83979E-001	0.00000E+000	9	...........
	912	36.52	-7.76060E-001	-4.90509E-004	0.00000E+000	-7.75975E-001	0.00000E+000	9	...........
	916	36.68	-7.68077E-001	-3.93597E-004	0.00000E+000	-7.68021E-001	0.00000E+000	9	...........
	920	36.84	-7.60094E-001	-3.35389E-004	0.00000E+000	-7.60017E-001	0.00000E+000	9	...........
	924	37	-7.52077E-001	-3.05879E-004	0.00000E+000	-7.52013E-001	0.00000E+000	9	...........
	928	37.16	-7.44095E-001	-2.92727E-004	0.00000E+000	-7.44008E-001	0.00000E+000	9	...........
	932	37.32	-7.36072E-001	-2.90218E-004	0.00000E+000	-7.36004E-001	0.00000E+000	9	...........
	936	37.48	-7.28059E-001	-2.95103E-004	0.00000E+000	-7.28000E-001	0.00000E+000	9	...........
	940	37.64	-7.20079E-001	-3.02485E-004	0.00000E+000	-7.19996E-001	0.00000E+000	9	...........
	944	37.8	-7.12070E-001	-3.11936E-004	0.00000E+000	-7.11992E-001	0.00000E+000	9	...........
	948	37.96	-7.04046E-001	-3.19059E-004	0.00000E+000	-7.03988E-001	0.00000E+000	9	...........
	952	38.12	-6.96061E-001	-3.26067E-004	0.00000E+000	-6.95984E-001	0.00000E+000	9	...........
	956	38.28	-6.88049E-001	-3.31699E-004	0.00000E+000	-6.87980E-001	0.00000E+000	9	...........
	960	38.44	-6.80062E-001	-3.33444E-004	0.00000E+000	-6.79976E-001	0.00000E+000	9	...........
	964	38.6	-6.72091E-001	-3.36436E-004	0.00000E+000	-6.72022E-001	0.00000E+000	9	...........
	968	38.76	-6.64077E-001	-3.35621E-004	0.00000E+000	-6.64017E-001	0.00000E+000	9	...........
	972	38.92	-6.56076E-001	-3.34072E-004	0.00000E+000	-6.56013E-001	0.00000E+000	9	...........
	976	39.08	-6.48073E-001	-3.32190E-004	0.00000E+000	-6.48009E-001	0.00000E+000	9	...........
	980	39.24	-6.40062E-001	-3.28122E-004	0.00000E+000	-6.40005E-001	0.00000E+000	9	...........
	984	39.4	-6.32064E-001	-3.24906E-004	0.00000E+000	-6.32001E-001	0.00000E+000	9	...........
	988	39.56	-6.24059E-001	-3.19637E-004	0.00000E+000	-6.23997E-001	0.00000E+000	9	...........
	992	39.72	-6.16060E-001	-3.13793E-004	0.00000E+000	-6.15993E-001	0.00000E+000	9	...........
	996	39.88	-6.08032E-001	-3.07783E-004	0.00000E+000	-6.07989E-001	0.00000E+000	9	...........
	1000	40.04	-6.00046E-001	-3.00437E-004	0.00000E+000	-5.99985E-001	0.00000E+000	9	...........
	1004	40.2	-5.92042E-001	-2.93422E-004	0.00000E+000	-5.91981E-001	0.00000E+000	9	...........
	1008	40.36	-5.84032E-001	-2.86118E-004	0.00000E+000	-5.83977E-001	0.00000E+000	9	...........
	1012	40.52	-5.76021E-001	-2.78821E-004	0.00000E+000	-5.75972E-001	0.00000E+000	9	...........
	1016	40.68	-5.68086E-001	-2.73280E-004	0.00000E+000	-5.68018E-001	0.00000E+000	9	...........
	1020	40.84	-5.60069E-001	-2.66845E-004	0.00000E+000	-5.60014E-001	0.00000E+000	9	...........
	1024	41	-5.52071E-001	-2.61108E-004	0.00000E+000	-5.52010E-001	0.00000E+000	9	...........
	1028	41.16	-5.44060E-001	-2.54940E-004	0.00000E+000	-5.44006E-001	0.00000E+000	9	...........
	1032	41.32	-5.36057E-001	-2.51072E-004	0.00000E+000	-5.36002E-001	0.00000E+000	9	...........
	1036	41.48	-5.28062E-001	-2.47680E-004	0.00000E+000	-5.27998E-001	0.00000E+000	9	...........
	1040	41.64	-5.20058E-001	-2.44104E-004	0.00000E+000	-5.19994E-001	0.00000E+000	9	...........
	1044	41.8	-5.12057E-001	-2.43408E-004	0.00000E+000	-5.11990E-001	0.00000E+000	9	...........
	1048	41.96	-5.04070E-001	-2.41872E-004	0.00000E+000	-5.03986E-001	0.00000E+000	9	...........
	1052	42.12	-4.96050E-001	-2.42650E-004	0.00000E+000	-4.95981E-001	0.00000E+000	9	...........
	1056	42.28	-4.88050E-001	-2.45419E-004	0.00000E+000	-4.87977E-001	0.00000E+000	9	...........
	1060	42.44	-4.80030E-001	-2.47742E-004	0.00000E+000	-4.79973E-001	0.00000E+000	9	...........
	1064	42.6	-4.72080E-001	-2.53945E-004	0.00000E+000	-4.72019E-001	0.00000E+000	9	...........
	1068	42.76	-4.64084E-001	-2.58438E-004	0.00000E+000	-4.64015E-001	0.00000E+000	9	...........
	1072	42.92	-4.56065E-001	-2.65023E-004	0.00000E+000	-4.56011E-001	0.00000E+000	9	...........
	1076	43.08	-4.48047E-001	-2.71581E-004	0.00000E+000	-4.48007E-001	0.00000E+000	9	...........
	1080	43.24	-4.40055E-001	-2.77814E-004	0.00000E+000	-4.40003E-001	0.00000E+000	9	...........
	1084	43.4	-4.32043E-001	-2.86072E-004	0.00000E+000	-4.31999E-001	0.00000E+000	9	...........
	1088	43.56	-4.24057E-001	-2.92411E-004	0.00000E+000	-4.23995E-001	0.00000E+000	9	...........
	1092	43.72	-4.16033E-001	-2.99987E-004	0.00000E+000	-4.15990E-001	0.00000E+000	9	...........
	1096	43.88	-4.08026E-001	-3.07546E-004	0.00000E+000	-4.07986E-001	0.00000E+000	9	...........
	1100	44.04	-4.00032E-001	-3.13329E-004	0.00000E+000	-3.99982E-001	0.00000E+000	9	...........
	1104	44.2	-3.92028E-001	-3.19612E-004	0.00000E+000	-3.91978E-001	0.00000E+000	9	...........
	1108	44.36	-3.84006E-001	-3.22984E-004	0.00000E+000	-3.83974E-001	0.00000E+000	9	...........
	1112	44.52	-3.76086E-001	-3.26032E-004	0.00000E+000	-3.76020E-001	0.00000E+000	9	...........
	1116	44.68	-3.68077E-001	-3.27368E-004	0.00000E+000	-3.68016E-001	0.00000E+000	9	...........
	1120	44.84	-3.60074E-001	-3.26461E-004	0.00000E+000	-3.60012E-001	0.00000E+000	9	...........
	1124	45	-3.52053E-001	-3.26234E-004	0.00000E+000	-3.52008E-001	0.00000E+000	9	...........
	1128	45.16	-3.44043E-001	-3.23842E-004	0.00000E+000	-3.44004E-001	0.00000E+000	9	...........
	1132	45.32	-3.36033E-001	-3.21605E-004	0.00000E+000	-3.36000E-001	0.00000E+000	9	...........
	1136	45.48	-3.28033E-001	-3.18860E-004	0.00000E+000	-3.27995E-001	0.00000E+000	9	...........
	1140	45.64	-3.20030E-001	-3.15335E-004	0.00000E+000	-3.19991E-001	0.00000E+000	9	...........
	1144	45.8	-3.12026E-001	-3.12261E-004	0.00000E+000	-3.11987E-001	0.00000E+000	9	...........
	1148	45.96	-3.04031E-001	-3.08070E-004	0.00000E+000	-3.03983E-001	0.00000E+000	9	...........
	1152	46.12	-2.96035E-001	-3.04275E-004	0.00000E+000	-2.95979E-001	0.00000E+000	9	...........
	1156	46.28	-2.88026E-001	-3.00391E-004	0.00000E+000	-2.87975E-001	0.00000E+000	9	...........
	1160	46.44	-2.80060E-001	-2.95846E-004	0.00000E+000	-2.80021E-001	0.00000E+000	9	...........
	1164	46.6	-2.72071E-001	-2.92270E-004	0.00000E+000	-2.72017E-001	0.00000E+000	9	...........
	1168	46.76	-2.64072E-001	-2.87102E-004	0.00000E+000	-2.64013E-001	0.00000E+000	9	...........
	1172	46.92	-2.56063E-001	-2.82800E-004	0.00000E+000	-2.56009E-001	0.00000E+000	9	...........
	1176	47.08	-2.48037E-001	-2.78182E-004	0.00000E+000	-2.48004E-001	0.00000E+000	9	...........
	1180	47.24	-2.40030E-001	-2.72780E-004	0.00000E+000	-2.40000E-001	0.00000E+000	9	...........
	1184	47.4	-2.32039E-001	-2.68288E-004	0.00000E+000	-2.31996E-001	0.00000E+000	9	...........
	1188	47.56	-2.24022E-001	-2.62615E-004	0.00000E+000	-2.23992E-001	0.00000E+000	9	...........
	1192	47.72	-2.16011E-001	-2.57425E-004	0.00000E+000	-2.15988E-001	0.00000E+000	9	...........
	1196	47.88	-2.08014E-001	-2.52163E-004	0.00000E+000	-2.07984E-001	0.00000E+000	9	...........
	1200	48.04	-2.00017E-001	-2.46070E-004	0.00000E+000	-1.99980E-001	0.00000E+000	9	...........
	1204	48.2	-1.91999E-001	-2.40735E-004	0.00000E+000	-1.91976E-001	0.00000E+000	9	...........
	1208	48.36	-1.84063E-001	-2.34523E-004	0.00000E+000	-1.84022E-001	0.00000E+000	9	...........
	1212	48.52	-1.76048E-001	-2.28658E-004	0.00000E+000	-1.76018E-001	0.00000E+000	9	...........
	1216	48.68	-1.68047E-001	-2.22401E-004	0.00000E+000	-1.68013E-001	0.00000E+000	9	...........
	1220	48.84	-1.60042E-001	-2.15673E-004	0.00000E+000	-1.60009E-001	0.00000E+000	9	...........
	1224	49	-1.52019E-001	-2.09860E-004	0.00000E+000	-1.52005E-001	0.00000E+000	9	...........
	1228	49.16	-1.44033E-001	-2.02847E-004	0.00000E+000	-1.44001E-001	0.00000E+000	9	...........
	1232	49.32	-1.36012E-001	-1.96501E-004	0.00000E+000	-1.35997E-001	0.00000E+000	9	...........
	1236	49.48	-1.28029E-001	-1.89913E-004	0.00000E+000	-1.27993E-001	0.00000E+000	9	...........
	1240	49.64	-1.20010E-001	-1.82684E-004	0.00000E+000	-1.19989E-001	0.00000E+000	9	...........
	1244	49.8	-1.12014E-001	-1.76348E-004	0.00000E+000	-1.11985E-001	0.00000E+000	9	...........
	1248	49.96	-1.04041E-001	-1.69000E-004	0.00000E+000	-1.03981E-001	0.00000E+000	9	...........
	1252	50.12	-9.60258E-002	-1.62715E-004	0.00000E+000	-9.59766E-002	0.00000E+000	9	...........
	1256	50.28	-8.80654E-002	-1.55879E-004	0.00000E+000	-8.80225E-002	0.00000E+000	9	...........
	1260	50.44	-8.00667E-002	-1.48629E-004	0.00000E+000	-8.00184E-002	0.00000E+000	9	...........
	1264	50.6	-7.20387E-002	-1.41978E-004	0.00000E+000	-7.20143E-002	0.00000E+000	9	...........
	1268	50.76	-6.40612E-002	-1.34532E-004	0.00000E+000	-6.40102E-002	0.00000E+000	9	...........
	1272	50.92	-5.60466E-002	-1.27761E-004	0.00000E+000	-5.60061E-002	0.00000E+000	9	...........
	1276	51.08	-4.80278E-002	-1.20343E-004	0.00000E+000	-4.80020E-002	0.00000E+000	9	...........
	1280	51.24	-4.00395E-002	-1.13026E-004	0.00000E+000	-3.99979E-002	0.00000E+000	9	...........
	1284	51.4	-3.20384E-002	-1.06057E-004	0.00000E+000	-3.19938E-002	0.00000E+000	9	...........
	1288	51.56	-2.39931E-002	-9.81130E-005	0.00000E+000	-2.39897E-002	0.00000E+000	9	...........
	1292	51.72	-1.60115E-002	-9.09452E-005	0.00000E+000	-1.59856E-002	0.00000E+000	9	...........
	1296	51.88	-8.00667E-003	-8.33241E-005	0.00000E+000	-7.98152E-003	0.00000E+000	9	...........
	1300	52.04	1.42035E-005	-7.51135E-005	0.00000E+000	2.25753E-005	0.00000E+000	8	...........
	1304	52.2	8.01756E-003	-6.78304E-005	0.00000E+000	8.02667E-003	0.00000E+000	8	...........
	1308	52.36	1.59806E-002	-5.99165E-005	0.00000E+000	1.59808E-002	0.00000E+000	8	...........
	1312	52.52	2.39671E-002	-5.25941E-005	0.00000E+000	2.39848E-002	0.00000E+000	8	...........
	1316	52.68	3.19805E-002	-4.46806E-005	0.00000E+000	3.19889E-002	0.00000E+000	8	...........
	1320	52.84	3.99820E-002	-3.68664E-005	0.00000E+000	3.99930E-002	0.00000E+000	8	...........
	1324	53	4.79813E-002	-2.95564E-005	0.00000E+000	4.79971E-002	0.00000E+000	8	...........
	1328	53.16	5.60008E-002	-2.12271E-005	0.00000E+000	5.60012E-002	0.00000E+000	8	...........
	1332	53.32	6.39914E-002	-1.41713E-005	0.00000E+000	6.40053E-002	0.00000E+000	8	...........
	1336	53.48	7.20392E-002	-5.01328E-006	0.00000E+000	7.20094E-002	0.00000E+000	7	...........
	1340	53.64	8.00415E-002	2.53091E-006	0.00000E+000	8.00135E-002	0.00000E+000	7	...........
	1344	53.8	8.80394E-002	1.00409E-005	0.00000E+000	8.80176E-002	0.00000E+000	7	....ih..i..
	1348	53.96	9.59958E-002	1.85076E-005	0.00000E+000	9.60217E-002	0.00000E+000	8	...........
	1352	54.12	1.04028E-001	2.64407E-005	0.00000E+000	1.04026E-001	0.00000E+000	8	...........
	1356	54.28	1.11956E-001	3.59245E-005	0.00000E+000	1.11980E-001	0.00000E+000	8	...........
	1360	54.44	1.19958E-001	4.42777E-005	0.00000E+000	1.19984E-001	0.00000E+000	8	...........
	1364	54.6	1.27983E-001	5.25303E-005	0.00000E+000	1.27988E-001	0.00000E+000	8	...........
	1368	54.76	1.35975E-001	6.20172E-005	0.00000E+000	1.35992E-001	0.00000E+000	8	...........
	1372	54.92	1.43988E-001	7.09034E-005	0.00000E+000	1.43996E-001	0.00000E+000	8	...........
	1376	55.08	1.51979E-001	8.09912E-005	0.00000E+000	1.52000E-001	0.00000E+000	8	...........
	1380	55.24	1.59997E-001	9.08627E-005	0.00000E+000	1.60005E-001	0.00000E+000	8	...........
	1384	55.4	1.68016E-001	1.00405E-004	0.00000E+000	1.68009E-001	0.00000E+000	9	...........
	1388	55.56	1.76012E-001	1.11466E-004	0.00000E+000	1.76013E-001	0.00000E+000	9	...........
	1392	55.72	1.84036E-001	1.21630E-004	0.00000E+000	1.84017E-001	0.00000E+000	9	...........
	1396	55.88	1.92016E-001	1.33488E-004	0.00000E+000	1.92021E-001	0.00000E+000	9	...........
	1400	56.04	2.00035E-001	1.45197E-004	0.00000E+000	2.00025E-001	0.00000E+000	9	...........
	1404	56.2	2.07992E-001	1.56673E-004	0.00000E+000	2.07979E-001	0.00000E+000	9	...........
	1408	56.36	2.15996E-001	1.69239E-004	0.00000E+000	2.15983E-001	0.00000E+000	9	...........
	1412	56.52	2.23990E-001	1.80974E-004	0.00000E+000	2.23987E-001	0.00000E+000	9	...........
	1416	56.68	2.32016E-001	1.93670E-004	0.00000E+000	2.31991E-001	0.00000E+000	9	...........
	1420	56.84	2.40004E-001	2.04903E-004	0.00000E+000	2.39995E-001	0.00000E+000	9	...........
	1424	57	2.48017E-001	2.15466E-004	0.00000E+000	2.48000E-001	0.00000E+000	9	...........
	1428	57.16	2.56014E-001	2.25889E-004	0.00000E+000	2.56004E-001	0.00000E+000	9	...........
	1432	57.32	2.64033E-001	2.33830E-004	0.00000E+000	2.64008E-001	0.00000E+000	9	...........
[...]
	11287	451.52	2.60072E-002	-6.59839E-004	0.00000E+000	2.59859E-002	0.00000E+000	9	...........
	11289	451.6	2.19764E-002	-6.62256E-004	0.00000E+000	2.19838E-002	0.00000E+000	9	...........
	11291	451.68	1.79784E-002	-6.64407E-004	0.00000E+000	1.79818E-002	0.00000E+000	9	...........
	11293	451.76	1.39741E-002	-6.66377E-004	0.00000E+000	1.39797E-002	0.00000E+000	9	...........
	11295	451.84	9.97715E-003	-6.69418E-004	0.00000E+000	9.97768E-003	0.00000E+000	9	...........
	11297	451.92	6.02438E-003	-6.73153E-004	0.00000E+000	6.02565E-003	0.00000E+000	9	...........
	11299	452	2.04013E-003	-6.78332E-004	0.00000E+000	2.02360E-003	0.00000E+000	9	...........
	11301	452.08	-2.00233E-003	-6.83761E-004	0.00000E+000	-1.97845E-003	0.00000E+000	9	...........
	11303	452.16	-5.98388E-003	-6.89561E-004	0.00000E+000	-5.98050E-003	0.00000E+000	9	...........
	11305	452.24	-9.98462E-003	-6.96431E-004	0.00000E+000	-9.98255E-003	0.00000E+000	9	...........
	11307	452.32	-1.39950E-002	-7.05074E-004	0.00000E+000	-1.39846E-002	0.00000E+000	9	...........
	11309	452.4	-1.79944E-002	-7.14713E-004	0.00000E+000	-1.79866E-002	0.00000E+000	9	...........
	11311	452.48	-2.19927E-002	-7.24495E-004	0.00000E+000	-2.19887E-002	0.00000E+000	9	...........
	11313	452.56	-2.60262E-002	-7.35201E-004	0.00000E+000	-2.59908E-002	0.00000E+000	9	...........
	11315	452.64	-3.00102E-002	-7.47039E-004	0.00000E+000	-2.99928E-002	0.00000E+000	9	...........
	11317	452.72	-3.40068E-002	-7.59483E-004	0.00000E+000	-3.39949E-002	0.00000E+000	9	...........
	11319	452.8	-3.80071E-002	-7.72478E-004	0.00000E+000	-3.79969E-002	0.00000E+000	9	...........
	11321	452.88	-4.20256E-002	-7.86099E-004	0.00000E+000	-4.19990E-002	0.00000E+000	9	...........
	11323	452.96	-4.60096E-002	-7.99720E-004	0.00000E+000	-4.60010E-002	0.00000E+000	9	...........
	11325	453.04	-5.00277E-002	-8.14102E-004	0.00000E+000	-5.00031E-002	0.00000E+000	9	...........
	11327	453.12	-5.40257E-002	-8.28664E-004	0.00000E+000	-5.40051E-002	0.00000E+000	9	...........
	11329	453.2	-5.80465E-002	-8.42805E-004	0.00000E+000	-5.80072E-002	0.00000E+000	9	...........
	11331	453.28	-6.20197E-002	-8.56568E-004	0.00000E+000	-6.20092E-002	0.00000E+000	9	...........
	11333	453.36	-6.60450E-002	-8.69861E-004	0.00000E+000	-6.60113E-002	0.00000E+000	9	...........
	11335	453.44	-7.00282E-002	-8.83092E-004	0.00000E+000	-7.00133E-002	0.00000E+000	9	...........
	11337	453.52	-7.40438E-002	-8.94372E-004	0.00000E+000	-7.40153E-002	0.00000E+000	10	...........
	11339	453.6	-7.80585E-002	-9.05834E-004	0.00000E+000	-7.80174E-002	0.00000E+000	10	...........
	11341	453.68	-8.20644E-002	-9.16216E-004	0.00000E+000	-8.20194E-002	0.00000E+000	10	...........
	11343	453.76	-8.60568E-002	-9.25254E-004	0.00000E+000	-8.60215E-002	0.00000E+000	10	...........
	11345	453.84	-9.00117E-002	-9.32767E-004	0.00000E+000	-8.99735E-002	0.00000E+000	10	...........
	11347	453.92	-9.40195E-002	-9.40389E-004	0.00000E+000	-9.39756E-002	0.00000E+000	10	...........
	11349	454	-9.80113E-002	-9.46185E-004	0.00000E+000	-9.79776E-002	0.00000E+000	10	...........
	11351	454.08	-1.02022E-001	-9.50555E-004	0.00000E+000	-1.01980E-001	0.00000E+000	10	...........
	11353	454.16	-1.06014E-001	-9.53476E-004	0.00000E+000	-1.05982E-001	0.00000E+000	10	...........
	11355	454.24	-1.10015E-001	-9.55316E-004	0.00000E+000	-1.09984E-001	0.00000E+000	10	...........
	11357	454.32	-1.14002E-001	-9.56384E-004	0.00000E+000	-1.13986E-001	0.00000E+000	10	...........
	11359	454.4	-1.18016E-001	-9.56093E-004	0.00000E+000	-1.17988E-001	0.00000E+000	10	...........
	11361	454.48	-1.22019E-001	-9.54798E-004	0.00000E+000	-1.21990E-001	0.00000E+000	10	...........
	11363	454.56	-1.26008E-001	-9.52410E-004	0.00000E+000	-1.25992E-001	0.00000E+000	10	...........
	11365	454.64	-1.30027E-001	-9.48525E-004	0.00000E+000	-1.29994E-001	0.00000E+000	10	...........
	11367	454.72	-1.34018E-001	-9.43533E-004	0.00000E+000	-1.33996E-001	0.00000E+000	10	...........
	11369	454.8	-1.38012E-001	-9.38160E-004	0.00000E+000	-1.37998E-001	0.00000E+000	10	...........
	11371	454.88	-1.42039E-001	-9.31007E-004	0.00000E+000	-1.42000E-001	0.00000E+000	10	...........
	11373	454.96	-1.46030E-001	-9.23796E-004	0.00000E+000	-1.46002E-001	0.00000E+000	10	...........
	11375	455.04	-1.50030E-001	-9.16285E-004	0.00000E+000	-1.50004E-001	0.00000E+000	10	...........
	11377	455.12	-1.54062E-001	-9.08276E-004	0.00000E+000	-1.54006E-001	0.00000E+000	10	...........
	11379	455.2	-1.58056E-001	-9.00416E-004	0.00000E+000	-1.58008E-001	0.00000E+000	10	...........
	11381	455.28	-1.62041E-001	-8.91525E-004	0.00000E+000	-1.62010E-001	0.00000E+000	10	...........
	11383	455.36	-1.66036E-001	-8.82770E-004	0.00000E+000	-1.66012E-001	0.00000E+000	10	...........
	11385	455.44	-1.70061E-001	-8.74012E-004	0.00000E+000	-1.70015E-001	0.00000E+000	10	...........
	11387	455.52	-1.74046E-001	-8.65315E-004	0.00000E+000	-1.74017E-001	0.00000E+000	10	...........
	11389	455.6	-1.78040E-001	-8.56443E-004	0.00000E+000	-1.78019E-001	0.00000E+000	10	...........
	11391	455.68	-1.82055E-001	-8.46656E-004	0.00000E+000	-1.82021E-001	0.00000E+000	10	...........
	11393	455.76	-1.86069E-001	-8.36809E-004	0.00000E+000	-1.86023E-001	0.00000E+000	10	...........
	11395	455.84	-1.90020E-001	-8.27051E-004	0.00000E+000	-1.89975E-001	0.00000E+000	10	...........
	11397	455.92	-1.94024E-001	-8.17696E-004	0.00000E+000	-1.93977E-001	0.00000E+000	10	...........
	11399	456	-1.98013E-001	-8.08101E-004	0.00000E+000	-1.97979E-001	0.00000E+000	10	...........
	11401	456.08	-2.02009E-001	-8.00052E-004	0.00000E+000	-2.01981E-001	0.00000E+000	9	...........
	11403	456.16	-2.06010E-001	-7.89494E-004	0.00000E+000	-2.05983E-001	0.00000E+000	9	...........
	11405	456.24	-2.10012E-001	-7.79714E-004	0.00000E+000	-2.09985E-001	0.00000E+000	9	...........
	11407	456.32	-2.14007E-001	-7.70292E-004	0.00000E+000	-2.13987E-001	0.00000E+000	9	...........
	11409	456.4	-2.18030E-001	-7.60480E-004	0.00000E+000	-2.17989E-001	0.00000E+000	9	...........
	11411	456.48	-2.22014E-001	-7.50525E-004	0.00000E+000	-2.21991E-001	0.00000E+000	9	...........
	11413	456.56	-2.26022E-001	-7.40497E-004	0.00000E+000	-2.25993E-001	0.00000E+000	9	...........
	11415	456.64	-2.30017E-001	-7.31225E-004	0.00000E+000	-2.29995E-001	0.00000E+000	9	...........
	11417	456.72	-2.34036E-001	-7.22330E-004	0.00000E+000	-2.33997E-001	0.00000E+000	9	...........
	11419	456.8	-2.38040E-001	-7.13504E-004	0.00000E+000	-2.37999E-001	0.00000E+000	9	...........
	11421	456.88	-2.42027E-001	-7.04387E-004	0.00000E+000	-2.42001E-001	0.00000E+000	9	...........
	11423	456.96	-2.46050E-001	-6.95072E-004	0.00000E+000	-2.46003E-001	0.00000E+000	9	...........
	11425	457.04	-2.50047E-001	-6.87026E-004	0.00000E+000	-2.50005E-001	0.00000E+000	9	...........
	11427	457.12	-2.54038E-001	-6.79139E-004	0.00000E+000	-2.54008E-001	0.00000E+000	9	...........
	11429	457.2	-2.58069E-001	-6.71216E-004	0.00000E+000	-2.58010E-001	0.00000E+000	9	...........
	11431	457.28	-2.62066E-001	-6.63095E-004	0.00000E+000	-2.62012E-001	0.00000E+000	9	...........
	11433	457.36	-2.66063E-001	-6.55230E-004	0.00000E+000	-2.66014E-001	0.00000E+000	9	...........
	11435	457.44	-2.70071E-001	-6.47956E-004	0.00000E+000	-2.70016E-001	0.00000E+000	9	...........
	11437	457.52	-2.74061E-001	-6.41082E-004	0.00000E+000	-2.74018E-001	0.00000E+000	9	...........
	11439	457.6	-2.78056E-001	-6.34362E-004	0.00000E+000	-2.78020E-001	0.00000E+000	9	...........
	11441	457.68	-2.82083E-001	-6.26840E-004	0.00000E+000	-2.82022E-001	0.00000E+000	9	...........
	11443	457.76	-2.86034E-001	-6.19691E-004	0.00000E+000	-2.85974E-001	0.00000E+000	9	...........
	11445	457.84	-2.90034E-001	-6.13325E-004	0.00000E+000	-2.89976E-001	0.00000E+000	9	...........
	11447	457.92	-2.94021E-001	-6.07473E-004	0.00000E+000	-2.93978E-001	0.00000E+000	9	...........
	11449	458	-2.98043E-001	-6.01338E-004	0.00000E+000	-2.97980E-001	0.00000E+000	9	...........
	11451	458.08	-3.02028E-001	-5.94993E-004	0.00000E+000	-3.01982E-001	0.00000E+000	9	...........
	11453	458.16	-3.06027E-001	-5.88956E-004	0.00000E+000	-3.05984E-001	0.00000E+000	9	...........
	11455	458.24	-3.10033E-001	-5.83507E-004	0.00000E+000	-3.09986E-001	0.00000E+000	9	...........
	11457	458.32	-3.14034E-001	-5.78703E-004	0.00000E+000	-3.13988E-001	0.00000E+000	9	...........
	11459	458.4	-3.18021E-001	-5.73688E-004	0.00000E+000	-3.17990E-001	0.00000E+000	9	...........
	11461	458.48	-3.22039E-001	-5.68558E-004	0.00000E+000	-3.21992E-001	0.00000E+000	9	...........
	11463	458.56	-3.26032E-001	-5.63521E-004	0.00000E+000	-3.25994E-001	0.00000E+000	9	...........
	11465	458.64	-3.30034E-001	-5.59386E-004	0.00000E+000	-3.29996E-001	0.00000E+000	9	...........
	11467	458.72	-3.34060E-001	-5.55571E-004	0.00000E+000	-3.33999E-001	0.00000E+000	9	...........
	11469	458.8	-3.38044E-001	-5.55364E-004	0.00000E+000	-3.38001E-001	0.00000E+000	9	...........
	11471	458.88	-3.42030E-001	-5.51736E-004	0.00000E+000	-3.42003E-001	0.00000E+000	9	...........
	11473	458.96	-3.46061E-001	-5.44245E-004	0.00000E+000	-3.46005E-001	0.00000E+000	9	...........
	11475	459.04	-3.50053E-001	-5.40821E-004	0.00000E+000	-3.50007E-001	0.00000E+000	9	...........
	11477	459.12	-3.54057E-001	-5.38188E-004	0.00000E+000	-3.54009E-001	0.00000E+000	9	...........
	11479	459.2	-3.58043E-001	-5.35456E-004	0.00000E+000	-3.58011E-001	0.00000E+000	9	...........
	11481	459.28	-3.62070E-001	-5.32135E-004	0.00000E+000	-3.62013E-001	0.00000E+000	9	...........
	11483	459.36	-3.66072E-001	-5.29100E-004	0.00000E+000	-3.66015E-001	0.00000E+000	9	...........
	11485	459.44	-3.70060E-001	-5.26600E-004	0.00000E+000	-3.70017E-001	0.00000E+000	9	...........
	11487	459.52	-3.74081E-001	-5.24832E-004	0.00000E+000	-3.74019E-001	0.00000E+000	9	...........
	11489	459.6	-3.78074E-001	-5.22743E-004	0.00000E+000	-3.78021E-001	0.00000E+000	9	...........
	11491	459.68	-3.82016E-001	-5.20013E-004	0.00000E+000	-3.81973E-001	0.00000E+000	9	...........
	11493	459.76	-3.86027E-001	-5.17991E-004	0.00000E+000	-3.85975E-001	0.00000E+000	9	...........
	11495	459.84	-3.90022E-001	-5.16677E-004	0.00000E+000	-3.89977E-001	0.00000E+000	9	...........
	11497	459.92	-3.94030E-001	-5.15753E-004	0.00000E+000	-3.93979E-001	0.00000E+000	9	...........
	11499	460	-3.98044E-001	-5.17089E-004	0.00000E+000	-3.97981E-001	0.00000E+000	9	...........
	11501	460.08	-4.02026E-001	-5.12173E-004	0.00000E+000	-4.01983E-001	0.00000E+000	9	...........
	11503	460.16	-4.06027E-001	-5.09301E-004	0.00000E+000	-4.05985E-001	0.00000E+000	9	...........
	11505	460.24	-4.10047E-001	-5.07810E-004	0.00000E+000	-4.09987E-001	0.00000E+000	9	...........
	11507	460.32	-4.14038E-001	-5.07253E-004	0.00000E+000	-4.13989E-001	0.00000E+000	9	...........
	11509	460.4	-4.18034E-001	-5.06145E-004	0.00000E+000	-4.17992E-001	0.00000E+000	9	...........
	11511	460.48	-4.22025E-001	-5.04540E-004	0.00000E+000	-4.21994E-001	0.00000E+000	9	...........
	11513	460.56	-4.26040E-001	-5.03260E-004	0.00000E+000	-4.25996E-001	0.00000E+000	9	...........
	11515	460.64	-4.30049E-001	-5.02878E-004	0.00000E+000	-4.29998E-001	0.00000E+000	9	...........
	11517	460.72	-4.34025E-001	-5.02560E-004	0.00000E+000	-4.34000E-001	0.00000E+000	9	...........
	11519	460.8	-4.38059E-001	-5.02004E-004	0.00000E+000	-4.38002E-001	0.00000E+000	9	...........
	11521	460.88	-4.42051E-001	-5.01291E-004	0.00000E+000	-4.42004E-001	0.00000E+000	9	...........
	11523	460.96	-4.46055E-001	-5.00884E-004	0.00000E+000	-4.46006E-001	0.00000E+000	9	...........
	11525	461.04	-4.50067E-001	-5.01190E-004	0.00000E+000	-4.50008E-001	0.00000E+000	9	...........
	11527	461.12	-4.54059E-001	-5.02248E-004	0.00000E+000	-4.54010E-001	0.00000E+000	9	...........
	11529	461.2	-4.58060E-001	-5.02284E-004	0.00000E+000	-4.58012E-001	0.00000E+000	9	...........
	11531	461.28	-4.62090E-001	-5.02215E-004	0.00000E+000	-4.62014E-001	0.00000E+000	9	...........
	11533	461.36	-4.66073E-001	-5.02382E-004	0.00000E+000	-4.66016E-001	0.00000E+000	9	...........
	11535	461.44	-4.70082E-001	-5.03956E-004	0.00000E+000	-4.70018E-001	0.00000E+000	9	...........
	11537	461.52	-4.74079E-001	-5.05358E-004	0.00000E+000	-4.74020E-001	0.00000E+000	9	...........
	11539	461.6	-4.78040E-001	-5.05732E-004	0.00000E+000	-4.77972E-001	0.00000E+000	9	...........
	11541	461.68	-4.82040E-001	-5.06759E-004	0.00000E+000	-4.81974E-001	0.00000E+000	9	...........
	11543	461.76	-4.86038E-001	-5.08130E-004	0.00000E+000	-4.85976E-001	0.00000E+000	9	...........
	11545	461.84	-4.90054E-001	-5.09978E-004	0.00000E+000	-4.89978E-001	0.00000E+000	9	...........
	11547	461.92	-4.94041E-001	-5.12637E-004	0.00000E+000	-4.93980E-001	0.00000E+000	9	...........
	11549	462	-4.98033E-001	-5.14662E-004	0.00000E+000	-4.97982E-001	0.00000E+000	9	...........
	11551	462.08	-5.02051E-001	-5.16073E-004	0.00000E+000	-5.01985E-001	0.00000E+000	9	...........
	11553	462.16	-5.06045E-001	-5.19032E-004	0.00000E+000	-5.05987E-001	0.00000E+000	9	...........
	11555	462.24	-5.10051E-001	-5.22368E-004	0.00000E+000	-5.09989E-001	0.00000E+000	9	...........
	11557	462.32	-5.14082E-001	-5.26144E-004	0.00000E+000	-5.13991E-001	0.00000E+000	9	...........
	11559	462.4	-5.18043E-001	-5.29922E-004	0.00000E+000	-5.17993E-001	0.00000E+000	9	...........
	11561	462.48	-5.22042E-001	-5.32976E-004	0.00000E+000	-5.21995E-001	0.00000E+000	9	...........
	11563	462.56	-5.26050E-001	-5.37014E-004	0.00000E+000	-5.25997E-001	0.00000E+000	9	...........
	11565	462.64	-5.30050E-001	-5.42544E-004	0.00000E+000	-5.29999E-001	0.00000E+000	9	...........
	11567	462.72	-5.34049E-001	-5.47624E-004	0.00000E+000	-5.34001E-001	0.00000E+000	9	...........
	11569	462.8	-5.38050E-001	-5.51984E-004	0.00000E+000	-5.38003E-001	0.00000E+000	9	...........
	11571	462.88	-5.42064E-001	-5.57028E-004	0.00000E+000	-5.42005E-001	0.00000E+000	9	...........
	11573	462.96	-5.46063E-001	-5.62256E-004	0.00000E+000	-5.46007E-001	0.00000E+000	9	...........
	11575	463.04	-5.50055E-001	-5.67907E-004	0.00000E+000	-5.50009E-001	0.00000E+000	9	...........
	11577	463.12	-5.54067E-001	-5.73513E-004	0.00000E+000	-5.54011E-001	0.00000E+000	9	...........
	11579	463.2	-5.58069E-001	-5.78054E-004	0.00000E+000	-5.58013E-001	0.00000E+000	9	...........
	11581	463.28	-5.62054E-001	-5.81699E-004	0.00000E+000	-5.62015E-001	0.00000E+000	9	...........
	11583	463.36	-5.66082E-001	-5.86465E-004	0.00000E+000	-5.66017E-001	0.00000E+000	9	...........
	11585	463.44	-5.70073E-001	-5.91110E-004	0.00000E+000	-5.70019E-001	0.00000E+000	9	...........
	11587	463.52	-5.74072E-001	-5.95637E-004	0.00000E+000	-5.74021E-001	0.00000E+000	9	...........
	11589	463.6	-5.78037E-001	-5.98476E-004	0.00000E+000	-5.77973E-001	0.00000E+000	9	...........
	11591	463.68	-5.82039E-001	-6.00780E-004	0.00000E+000	-5.81975E-001	0.00000E+000	9	...........
	11593	463.76	-5.86026E-001	-6.03951E-004	0.00000E+000	-5.85978E-001	0.00000E+000	9	...........
	11595	463.84	-5.90055E-001	-6.08442E-004	0.00000E+000	-5.89980E-001	0.00000E+000	9	...........
	11597	463.92	-5.94029E-001	-6.10126E-004	0.00000E+000	-5.93982E-001	0.00000E+000	9	...........
	11599	464	-5.98041E-001	-6.12573E-004	0.00000E+000	-5.97984E-001	0.00000E+000	9	...........
	11601	464.08	-6.02024E-001	-6.12032E-004	0.00000E+000	-6.01986E-001	0.00000E+000	9	...........
	11603	464.16	-6.06059E-001	-6.13650E-004	0.00000E+000	-6.05988E-001	0.00000E+000	9	...........
	11605	464.24	-6.10044E-001	-6.14528E-004	0.00000E+000	-6.09990E-001	0.00000E+000	9	...........
	11607	464.32	-6.14033E-001	-6.15403E-004	0.00000E+000	-6.13992E-001	0.00000E+000	9	...........
	11609	464.4	-6.18056E-001	-6.13862E-004	0.00000E+000	-6.17994E-001	0.00000E+000	9	...........
	11611	464.48	-6.22045E-001	-6.11247E-004	0.00000E+000	-6.21996E-001	0.00000E+000	9	...........
	11613	464.56	-6.26042E-001	-6.09200E-004	0.00000E+000	-6.25998E-001	0.00000E+000	9	...........
	11615	464.64	-6.30069E-001	-6.07073E-004	0.00000E+000	-6.30000E-001	0.00000E+000	9	...........
	11617	464.72	-6.34062E-001	-6.04341E-004	0.00000E+000	-6.34002E-001	0.00000E+000	9	...........
	11619	464.8	-6.38049E-001	-5.99006E-004	0.00000E+000	-6.38004E-001	0.00000E+000	9	...........
	11621	464.88	-6.42075E-001	-5.92635E-004	0.00000E+000	-6.42006E-001	0.00000E+000	9	...........
	11623	464.96	-6.46074E-001	-5.86094E-004	0.00000E+000	-6.46008E-001	0.00000E+000	9	...........
	11625	465.04	-6.50079E-001	-5.81411E-004	0.00000E+000	-6.50010E-001	0.00000E+000	9	...........
	11627	465.12	-6.54086E-001	-5.74563E-004	0.00000E+000	-6.54012E-001	0.00000E+000	9	...........
	11629	465.2	-6.58086E-001	-5.66838E-004	0.00000E+000	-6.58014E-001	0.00000E+000	9	...........
	11631	465.28	-6.62075E-001	-5.59312E-004	0.00000E+000	-6.62016E-001	0.00000E+000	9	...........
	11633	465.36	-6.66088E-001	-5.53140E-004	0.00000E+000	-6.66019E-001	0.00000E+000	9	...........
	11635	465.44	-6.70106E-001	-5.47693E-004	0.00000E+000	-6.70021E-001	0.00000E+000	9	...........
	11637	465.52	-6.74054E-001	-5.41941E-004	0.00000E+000	-6.73973E-001	0.00000E+000	9	...........
	11639	465.6	-6.78037E-001	-5.37617E-004	0.00000E+000	-6.77975E-001	0.00000E+000	9	...........
	11641	465.68	-6.82046E-001	-5.33033E-004	0.00000E+000	-6.81977E-001	0.00000E+000	9	...........
	11643	465.76	-6.86056E-001	-5.29971E-004	0.00000E+000	-6.85979E-001	0.00000E+000	9	...........
	11645	465.84	-6.90039E-001	-5.26907E-004	0.00000E+000	-6.89981E-001	0.00000E+000	9	...........
	11647	465.92	-6.94069E-001	-5.24067E-004	0.00000E+000	-6.93983E-001	0.00000E+000	9	...........
	11649	466	-6.98065E-001	-5.21274E-004	0.00000E+000	-6.97985E-001	0.00000E+000	9	...........
	11651	466.08	-7.02056E-001	-5.17398E-004	0.00000E+000	-7.01987E-001	0.00000E+000	9	...........
	11653	466.16	-7.06072E-001	-5.13788E-004	0.00000E+000	-7.05989E-001	0.00000E+000	9	...........
	11655	466.24	-7.10067E-001	-5.11771E-004	0.00000E+000	-7.09991E-001	0.00000E+000	9	...........
	11657	466.32	-7.14068E-001	-5.10139E-004	0.00000E+000	-7.13993E-001	0.00000E+000	9	...........
	11659	466.4	-7.18089E-001	-5.06978E-004	0.00000E+000	-7.17995E-001	0.00000E+000	9	...........
	11661	466.48	-7.22063E-001	-5.05034E-004	0.00000E+000	-7.21997E-001	0.00000E+000	9	...........
	11663	466.56	-7.26073E-001	-5.05666E-004	0.00000E+000	-7.25999E-001	0.00000E+000	9	...........
	11665	466.64	-7.30065E-001	-5.08220E-004	0.00000E+000	-7.30001E-001	0.00000E+000	9	...........
	11667	466.72	-7.34092E-001	-5.12244E-004	0.00000E+000	-7.34003E-001	0.00000E+000	9	...........
	11669	466.8	-7.38074E-001	-5.18474E-004	0.00000E+000	-7.38005E-001	0.00000E+000	9	...........
	11671	466.88	-7.42066E-001	-5.27086E-004	0.00000E+000	-7.42007E-001	0.00000E+000	9	...........
	11673	466.96	-7.46084E-001	-5.40815E-004	0.00000E+000	-7.46009E-001	0.00000E+000	9	...........
	11675	467.04	-7.50082E-001	-5.58629E-004	0.00000E+000	-7.50012E-001	0.00000E+000	9	...........
	11677	467.12	-7.54087E-001	-5.83041E-004	0.00000E+000	-7.54014E-001	0.00000E+000	9	...........
	11679	467.2	-7.58100E-001	-6.10697E-004	0.00000E+000	-7.58016E-001	0.00000E+000	9	...........
	11681	467.28	-7.62093E-001	-6.45414E-004	0.00000E+000	-7.62018E-001	0.00000E+000	9	...........
	11683	467.36	-7.66082E-001	-6.86167E-004	0.00000E+000	-7.66020E-001	0.00000E+000	9	...........
	11685	467.44	-7.70072E-001	-7.34615E-004	0.00000E+000	-7.69972E-001	0.00000E+000	9	...........
	11687	467.52	-7.74038E-001	-7.89460E-004	0.00000E+000	-7.73974E-001	0.00000E+000	9	...........
	11689	467.6	-7.78048E-001	-8.53226E-004	0.00000E+000	-7.77976E-001	0.00000E+000	9	...........
	11691	467.68	-7.82066E-001	-9.21428E-004	0.00000E+000	-7.81978E-001	0.00000E+000	10	...........
	11693	467.76	-7.86068E-001	-9.99913E-004	0.00000E+000	-7.85980E-001	0.00000E+000	10	...........
	11695	467.84	-7.90066E-001	-1.08685E-003	0.00000E+000	-7.89982E-001	0.00000E+000	10	...........
	11697	467.92	-7.94043E-001	-1.17937E-003	0.00000E+000	-7.93984E-001	0.00000E+000	10	...........
	11699	468	-7.98072E-001	-1.28227E-003	0.00000E+000	-7.97986E-001	0.00000E+000	10	...........
	11700	468.04	-8.00072E-001	-1.33677E-003	0.00000E+000	-7.99987E-001	0.00000E+000	10	...........