File: CV data/012615_KM_baseline_160mmhg.txt
EXPLAIN
TAG	CV
TITLE	LABEL	Cyclic Voltammetry	Test &Identifier
DATE	LABEL	1/26/2015	Date
TIME	LABEL	14:47:29	Time
NOTES	NOTES	1	&Notes...

PSTAT	PSTAT	IFC1000-06010	Potentiostat
VINIT	POTEN	1.00000E+000	F	Initial &E (V)
VLIMIT1	POTEN	-8.00000E-001	F	Scan Limit &1 (V)
VLIMIT2	POTEN	1.00000E+000	F	Scan Limit &2 (V)
VFINAL	POTEN	-8.00000E-001	F	Final &E (V)
SCANRATE	QUANT	4.99999E+001	&Scan Rate (mV/s)
STEPSIZE	QUANT	2.00000E+000	St&ep Size (mV)
CYCLES	IQUANT	10	C&ycles (#)
IMODE	SELECTOR	0	I/E Range &Mode
IRANGE	QUANT	1.00000E+001	&Max Current (mA)
AREA	QUANT	1.00000E+000	Electrode &Area (cm^2)
ELECTRODETYPE	SELECTOR	0	Electrode Type
STRIPPING	TOGGLE	F	Used for Stripping
POLARITY	TOGGLE	F	Signal Polarity
CONDIT	TWOPARAM	F	1.50000E+001	0.00000E+000	Conditionin&g	Time(s)	E(V)
DELAY	TWOPARAM	T	2.00000E+001	0.00000E+000	Init. De&lay	Time(s)	Stab.(mV/s)
EQDELAY	QUANT	5.00000E+000	Equil. &Time (s)
IRCOMP	SELECTOR	1	IRCom&p
PFCOR	QUANT	5.00000E+001	PF Corr. (ohm)
SAMPLINGMODE	SELECTOR	1	Sampling &Mode
OCVCURVE	TABLE	77
	Pt	T	Vf	Vm	Ach	Over
	#	s	V vs. Ref.	V	V	bits
	0	0.258333	2.15269E-001	2.15269E-001	0.00000E+000	...........
	1	0.516667	2.15279E-001	2.15767E-001	0.00000E+000	...........
	2	0.775	2.15337E-001	2.16260E-001	0.00000E+000	...........
	3	1.03333	2.15505E-001	2.16742E-001	0.00000E+000	...........
	4	1.29167	2.15809E-001	2.17215E-001	0.00000E+000	...........
	5	1.55	2.16220E-001	2.17688E-001	0.00000E+000	...........
	6	1.80833	2.16685E-001	2.18155E-001	0.00000E+000	...........
	7	2.06667	2.17165E-001	2.18616E-001	0.00000E+000	...........
	8	2.325	2.17643E-001	2.19072E-001	0.00000E+000	...........
	9	2.58333	2.18113E-001	2.19520E-001	0.00000E+000	...........
	10	2.84167	2.18576E-001	2.19961E-001	0.00000E+000	...........
	11	3.1	2.19032E-001	2.20398E-001	0.00000E+000	...........
	12	3.35833	2.19481E-001	2.20830E-001	0.00000E+000	...........
	13	3.61667	2.19923E-001	2.21262E-001	0.00000E+000	...........
	14	3.875	2.20361E-001	2.21685E-001	0.00000E+000	...........
	15	4.13333	2.20795E-001	2.22099E-001	0.00000E+000	...........
	16	4.39167	2.21223E-001	2.22512E-001	0.00000E+000	...........
	17	4.65	2.21647E-001	2.22924E-001	0.00000E+000	...........
	18	4.90833	2.22065E-001	2.23327E-001	0.00000E+000	...........
	19	5.16667	2.22478E-001	2.23728E-001	0.00000E+000	...........
	20	5.425	2.22888E-001	2.24124E-001	0.00000E+000	...........
	21	5.68333	2.23293E-001	2.24511E-001	0.00000E+000	...........
	22	5.94167	2.23693E-001	2.24896E-001	0.00000E+000	...........
	23	6.2	2.24088E-001	2.25277E-001	0.00000E+000	...........
	24	6.45833	2.24478E-001	2.25661E-001	0.00000E+000	...........
	25	6.71667	2.24864E-001	2.26034E-001	0.00000E+000	...........
	26	6.975	2.25247E-001	2.26402E-001	0.00000E+000	...........
	27	7.23333	2.25626E-001	2.26769E-001	0.00000E+000	...........
	28	7.49167	2.26001E-001	2.27130E-001	0.00000E+000	...........
	29	7.75	2.26371E-001	2.27489E-001	0.00000E+000	...........
	30	8.00833	2.26737E-001	2.27846E-001	0.00000E+000	...........
	31	8.26667	2.27100E-001	2.28200E-001	0.00000E+000	...........
	32	8.525	2.27459E-001	2.28549E-001	0.00000E+000	...........
	33	8.78333	2.27816E-001	2.28894E-001	0.00000E+000	...........
	34	9.04167	2.28169E-001	2.29233E-001	0.00000E+000	...........
	35	9.3	2.28518E-001	2.29572E-001	0.00000E+000	...........
	36	9.5583	2.28864E-001	2.29904E-001	0.00000E+000	...........
	37	9.8167	2.29205E-001	2.30235E-001	0.00000E+000	...........
	38	10.075	2.29543E-001	2.30566E-001	0.00000E+000	...........
	39	10.3333	2.29877E-001	2.30892E-001	0.00000E+000	...........
	40	10.5917	2.30209E-001	2.31215E-001	0.00000E+000	...........
	41	10.85	2.30538E-001	2.31534E-001	0.00000E+000	...........
	42	11.1083	2.30864E-001	2.31855E-001	0.00000E+000	...........
	43	11.3667	2.31188E-001	2.32165E-001	0.00000E+000	...........
	44	11.625	2.31508E-001	2.32473E-001	0.00000E+000	...........
	45	11.8833	2.31825E-001	2.32782E-001	0.00000E+000	...........
	46	12.1417	2.32138E-001	2.33087E-001	0.00000E+000	...........
	47	12.4	2.32448E-001	2.33389E-001	0.00000E+000	...........
	48	12.6583	2.32756E-001	2.33690E-001	0.00000E+000	...........
	49	12.9167	2.33061E-001	2.33990E-001	0.00000E+000	...........
	50	13.175	2.33364E-001	2.34282E-001	0.00000E+000	...........
	51	13.4333	2.33665E-001	2.34575E-001	0.00000E+000	...........
	52	13.6917	2.33963E-001	2.34863E-001	0.00000E+000	...........
	53	13.95	2.34258E-001	2.35149E-001	0.00000E+000	...........
	54	14.2083	2.34550E-001	2.35430E-001	0.00000E+000	...........
	55	14.4667	2.34838E-001	2.35715E-001	0.00000E+000	...........
	56	14.725	2.35125E-001	2.35997E-001	0.00000E+000	...........
	57	14.9833	2.35409E-001	2.36272E-001	0.00000E+000	...........
	58	15.2417	2.35691E-001	2.36550E-001	0.00000E+000	...........
	59	15.5	2.35972E-001	2.36820E-001	0.00000E+000	...........
	60	15.7583	2.36250E-001	2.37096E-001	0.00000E+000	...........
	61	16.0167	2.36526E-001	2.37364E-001	0.00000E+000	...........
	62	16.275	2.36799E-001	2.37632E-001	0.00000E+000	...........
	63	16.5333	2.37072E-001	2.37900E-001	0.00000E+000	...........
	64	16.7917	2.37342E-001	2.38158E-001	0.00000E+000	...........
	65	17.05	2.37610E-001	2.38422E-001	0.00000E+000	...........
	66	17.3083	2.37875E-001	2.38675E-001	0.00000E+000	...........
	67	17.5667	2.38138E-001	2.38930E-001	0.00000E+000	...........
	68	17.825	2.38398E-001	2.39188E-001	0.00000E+000	...........
	69	18.0833	2.38655E-001	2.39437E-001	0.00000E+000	...........
	70	18.3417	2.38911E-001	2.39686E-001	0.00000E+000	...........
	71	18.6	2.39164E-001	2.39933E-001	0.00000E+000	...........
	72	18.8583	2.39416E-001	2.40181E-001	0.00000E+000	...........
	73	19.1167	2.39665E-001	2.40427E-001	0.00000E+000	...........
	74	19.375	2.39914E-001	2.40670E-001	0.00000E+000	...........
	75	19.6333	2.40161E-001	2.40918E-001	0.00000E+000	...........
	76	19.8917	2.40407E-001	2.41156E-001	0.00000E+000	...........
EOC	QUANT	0.2404069	Open Circuit (V)
PSTATMODEL	IQUANT	48	Pstat Model
PSTATSECTION	LABEL	IFC1000-06010	Pstat Section
PSTATSERIALNO	LABEL	06010	Pstat Serial Number
CTRLMODE	IQUANT	1	Control Mode
IESTAB	IQUANT	2	I/E Stability
CASPEED	IQUANT	2	Control Amp Speed
CONVENTION	IQUANT	1	Current Convention
ICHRANGE	IQUANT	2	Ich Range
ICHRANGEMODE	TOGGLE	F	Ich Auto Range
ICHOFFSETENABLE	TOGGLE	F	Ich Offset Enable
ICHOFFSET	QUANT	0	Ich Offset (V)
ICHFILTER	IQUANT	3	Ich Filter
VCHRANGE	IQUANT	2	Vch Range
VCHRANGEMODE	TOGGLE	F	Vch Auto Range
VCHOFFSETENABLE	TOGGLE	F	Vch Offset Enable
VCHOFFSET	QUANT	0	Vch Offset (V)
VCHFILTER	IQUANT	3	Vch Filter
IERANGELOWERLIMIT	IQUANT	4	I/E Range Lower Limit
IERANGEMODE	TOGGLE	T	I/E AutoRange
IERANGE	IQUANT	11	I/E Range
ACHSELECT	IQUANT	4	Ach Select
CABLEID	IQUANT	14	Cable ID
DCCALDATE	LABEL	9/18/2014	DC Calibration Date
ACCALDATE	LABEL	9/18/2014	AC Calibration Date
FRAMEWORKVERSION	QUANT	6.25	Framework Version
INSTRUMENTVERSION	LABEL	3.26	Instrument Version
CURVE1	TABLE
	Pt	T	Vf	Im	Vu	Sig	Ach	IERange	Over
	#	s	V vs. Ref.	A	V	V	V	#	bits
	0	0.04	1.00018E+000	1.35778E-004	0.00000E+000	9.99985E-001	0.00000E+000	11	...........
	4	0.2	9.92166E-001	1.15902E-004	0.00000E+000	9.91981E-001	0.00000E+000	9	...........
	8	0.36	9.84146E-001	1.00533E-004	0.00000E+000	9.83977E-001	0.00000E+000	9	...........
	12	0.52	9.76200E-001	8.78445E-005	0.00000E+000	9.76022E-001	0.00000E+000	9	...........
	16	0.68	9.68171E-001	7.69785E-005	0.00000E+000	9.68018E-001	0.00000E+000	8	...........
	20	0.84	9.60162E-001	6.78405E-005	0.00000E+000	9.60014E-001	0.00000E+000	8	...........
	24	1	9.52173E-001	5.94183E-005	0.00000E+000	9.52010E-001	0.00000E+000	8	...........
	28	1.16	9.44155E-001	5.24448E-005	0.00000E+000	9.44006E-001	0.00000E+000	8	...........
	32	1.32	9.36171E-001	4.62792E-005	0.00000E+000	9.36002E-001	0.00000E+000	8	...........
	36	1.48	9.28160E-001	4.04493E-005	0.00000E+000	9.27998E-001	0.00000E+000	8	...........
	40	1.64	9.20136E-001	3.60548E-005	0.00000E+000	9.19994E-001	0.00000E+000	8	...........
	44	1.8	9.12178E-001	3.14117E-005	0.00000E+000	9.11990E-001	0.00000E+000	8	...........
	48	1.96	9.04158E-001	2.78565E-005	0.00000E+000	9.03986E-001	0.00000E+000	8	...........
	52	2.12	8.96139E-001	2.43783E-005	0.00000E+000	8.95981E-001	0.00000E+000	8	...........
	56	2.28	8.88146E-001	2.12474E-005	0.00000E+000	8.87977E-001	0.00000E+000	8	...........
	60	2.44	8.80186E-001	1.87693E-005	0.00000E+000	8.80023E-001	0.00000E+000	8	...........
	64	2.6	8.72202E-001	1.60083E-005	0.00000E+000	8.72019E-001	0.00000E+000	8	...........
	68	2.76	8.64172E-001	1.39965E-005	0.00000E+000	8.64015E-001	0.00000E+000	8	...........
	72	2.92	8.56187E-001	1.19611E-005	0.00000E+000	8.56011E-001	0.00000E+000	8	...........
	76	3.08	8.48175E-001	1.00053E-005	0.00000E+000	8.48007E-001	0.00000E+000	8	...........
	80	3.24	8.40157E-001	8.68933E-006	0.00000E+000	8.40003E-001	0.00000E+000	8	...........
	84	3.4	8.32075E-001	3.31621E-006	0.00000E+000	8.31999E-001	0.00000E+000	7	....ih..i..
	88	3.56	8.24079E-001	3.01119E-006	0.00000E+000	8.23995E-001	0.00000E+000	7	....ih..i..
	92	3.72	8.16072E-001	1.08854E-006	0.00000E+000	8.15991E-001	0.00000E+000	7	....ih.....
	96	3.88	8.08102E-001	-1.39884E-007	0.00000E+000	8.07986E-001	0.00000E+000	7	.....h.....
	100	4.04	8.00076E-001	-1.14802E-006	0.00000E+000	7.99982E-001	0.00000E+000	7	.....h.....
	104	4.2	7.92077E-001	-2.72687E-006	0.00000E+000	7.91978E-001	0.00000E+000	7	.....h.....
	108	4.36	7.84137E-001	-2.74700E-006	0.00000E+000	7.84024E-001	0.00000E+000	7	.....h.....
	112	4.52	7.76113E-001	-4.23493E-006	0.00000E+000	7.76020E-001	0.00000E+000	7	.....h.....
	116	4.68	7.68142E-001	-1.65072E-006	0.00000E+000	7.68016E-001	0.00000E+000	8	...........
	120	4.84	7.60160E-001	-2.09009E-006	0.00000E+000	7.60012E-001	0.00000E+000	8	...........
	124	5	7.52161E-001	-3.23602E-006	0.00000E+000	7.52008E-001	0.00000E+000	8	...........
	128	5.16	7.44166E-001	-3.74116E-006	0.00000E+000	7.44004E-001	0.00000E+000	8	...........
	132	5.32	7.36137E-001	-4.59246E-006	0.00000E+000	7.36000E-001	0.00000E+000	8	...........
	136	5.48	7.28128E-001	-5.41678E-006	0.00000E+000	7.27995E-001	0.00000E+000	8	...........
	140	5.64	7.20135E-001	-5.76385E-006	0.00000E+000	7.19991E-001	0.00000E+000	8	...........
	144	5.8	7.12150E-001	-6.68094E-006	0.00000E+000	7.11987E-001	0.00000E+000	8	...........
	148	5.96	7.04143E-001	-6.92146E-006	0.00000E+000	7.03983E-001	0.00000E+000	8	...........
	152	6.12	6.96152E-001	-7.76699E-006	0.00000E+000	6.95979E-001	0.00000E+000	8	...........
	156	6.28	6.88152E-001	-9.63121E-006	0.00000E+000	6.88025E-001	0.00000E+000	7	....ih..i..
	160	6.44	6.80200E-001	-8.68910E-006	0.00000E+000	6.80021E-001	0.00000E+000	8	...........
	164	6.6	6.72182E-001	-9.59463E-006	0.00000E+000	6.72017E-001	0.00000E+000	8	...........
	168	6.76	6.64159E-001	-9.78464E-006	0.00000E+000	6.64013E-001	0.00000E+000	8	...........
	172	6.92	6.56165E-001	-1.05787E-005	0.00000E+000	6.56009E-001	0.00000E+000	8	...........
	176	7.08	6.48172E-001	-1.11840E-005	0.00000E+000	6.48004E-001	0.00000E+000	8	...........
	180	7.24	6.40136E-001	-1.14461E-005	0.00000E+000	6.40000E-001	0.00000E+000	8	...........
	184	7.4	6.32146E-001	-1.23349E-005	0.00000E+000	6.31996E-001	0.00000E+000	8	...........
	188	7.56	6.24142E-001	-1.25911E-005	0.00000E+000	6.23992E-001	0.00000E+000	8	...........
	192	7.72	6.16153E-001	-1.33254E-005	0.00000E+000	6.15988E-001	0.00000E+000	8	...........
	196	7.88	6.08142E-001	-1.39246E-005	0.00000E+000	6.07984E-001	0.00000E+000	8	...........
	200	8.04	6.00129E-001	-1.41734E-005	0.00000E+000	5.99980E-001	0.00000E+000	8	...........
	204	8.2	5.92188E-001	-1.52123E-005	0.00000E+000	5.92026E-001	0.00000E+000	8	...........
	208	8.36	5.84161E-001	-1.54005E-005	0.00000E+000	5.84022E-001	0.00000E+000	8	...........
	212	8.52	5.76160E-001	-1.62095E-005	0.00000E+000	5.76018E-001	0.00000E+000	8	...........
	216	8.68	5.68158E-001	-1.68044E-005	0.00000E+000	5.68013E-001	0.00000E+000	8	...........
	220	8.84	5.60139E-001	-1.71825E-005	0.00000E+000	5.60009E-001	0.00000E+000	8	...........
	224	9	5.52143E-001	-1.81057E-005	0.00000E+000	5.52005E-001	0.00000E+000	8	...........
	228	9.16	5.44138E-001	-1.84104E-005	0.00000E+000	5.44001E-001	0.00000E+000	8	...........
	232	9.32	5.36131E-001	-1.94202E-005	0.00000E+000	5.35997E-001	0.00000E+000	8	...........
	236	9.48	5.28132E-001	-1.98817E-005	0.00000E+000	5.27993E-001	0.00000E+000	8	...........
	240	9.64	5.20124E-001	-2.05035E-005	0.00000E+000	5.19989E-001	0.00000E+000	8	...........
	244	9.8	5.12101E-001	-2.15302E-005	0.00000E+000	5.11985E-001	0.00000E+000	8	...........
	248	9.96	5.04121E-001	-2.19163E-005	0.00000E+000	5.03981E-001	0.00000E+000	8	...........
	252	10.12	4.96103E-001	-2.29544E-005	0.00000E+000	4.95977E-001	0.00000E+000	8	...........
	256	10.28	4.88171E-001	-2.37323E-005	0.00000E+000	4.88023E-001	0.00000E+000	8	...........
	260	10.44	4.80154E-001	-2.43257E-005	0.00000E+000	4.80018E-001	0.00000E+000	8	...........
	264	10.6	4.72142E-001	-2.55795E-005	0.00000E+000	4.72014E-001	0.00000E+000	8	...........
	268	10.76	4.64153E-001	-2.61656E-005	0.00000E+000	4.64010E-001	0.00000E+000	8	...........
	272	10.92	4.56132E-001	-2.74213E-005	0.00000E+000	4.56006E-001	0.00000E+000	8	...........
	276	11.08	4.48135E-001	-2.83707E-005	0.00000E+000	4.48002E-001	0.00000E+000	8	...........
	280	11.24	4.40133E-001	-2.92280E-005	0.00000E+000	4.39998E-001	0.00000E+000	8	...........
	284	11.4	4.32114E-001	-3.06803E-005	0.00000E+000	4.31994E-001	0.00000E+000	8	...........
	288	11.56	4.24128E-001	-3.15803E-005	0.00000E+000	4.23990E-001	0.00000E+000	8	...........
	292	11.72	4.16103E-001	-3.31414E-005	0.00000E+000	4.15986E-001	0.00000E+000	8	...........
	296	11.88	4.08110E-001	-3.43644E-005	0.00000E+000	4.07982E-001	0.00000E+000	8	...........
	300	12.04	4.00100E-001	-3.55374E-005	0.00000E+000	3.99977E-001	0.00000E+000	8	...........
	304	12.2	3.92147E-001	-3.72560E-005	0.00000E+000	3.92023E-001	0.00000E+000	8	...........
	308	12.36	3.84130E-001	-3.84891E-005	0.00000E+000	3.84019E-001	0.00000E+000	8	...........
	312	12.52	3.76140E-001	-4.03683E-005	0.00000E+000	3.76015E-001	0.00000E+000	8	...........
	316	12.68	3.68117E-001	-4.19814E-005	0.00000E+000	3.68011E-001	0.00000E+000	8	...........
	320	12.84	3.60145E-001	-4.36856E-005	0.00000E+000	3.60007E-001	0.00000E+000	8	...........
	324	13	3.52114E-001	-4.58757E-005	0.00000E+000	3.52003E-001	0.00000E+000	8	...........
	328	13.16	3.44108E-001	-4.75950E-005	0.00000E+000	3.43999E-001	0.00000E+000	8	...........
	332	13.32	3.36117E-001	-5.01887E-005	0.00000E+000	3.35995E-001	0.00000E+000	8	...........
	336	13.48	3.28104E-001	-5.23625E-005	0.00000E+000	3.27991E-001	0.00000E+000	8	...........
	340	13.64	3.20083E-001	-5.46907E-005	0.00000E+000	3.19986E-001	0.00000E+000	8	...........
	344	13.8	3.12092E-001	-5.77807E-005	0.00000E+000	3.11982E-001	0.00000E+000	8	...........
	348	13.96	3.04091E-001	-6.03062E-005	0.00000E+000	3.03978E-001	0.00000E+000	8	...........
	352	14.12	2.96145E-001	-6.37354E-005	0.00000E+000	2.96024E-001	0.00000E+000	8	...........
	356	14.28	2.88138E-001	-6.70129E-005	0.00000E+000	2.88020E-001	0.00000E+000	8	...........
	360	14.44	2.80131E-001	-7.06100E-005	0.00000E+000	2.80016E-001	0.00000E+000	8	...........
	364	14.6	2.72132E-001	-7.50684E-005	0.00000E+000	2.72012E-001	0.00000E+000	8	...........
	368	14.76	2.64132E-001	-7.91805E-005	0.00000E+000	2.64008E-001	0.00000E+000	8	...........
	372	14.92	2.56114E-001	-8.44637E-005	0.00000E+000	2.56004E-001	0.00000E+000	8	...........
	376	15.08	2.48115E-001	-8.97898E-005	0.00000E+000	2.48000E-001	0.00000E+000	8	...........
	380	15.24	2.40093E-001	-9.60964E-005	0.00000E+000	2.39995E-001	0.00000E+000	9	...........
	384	15.4	2.32129E-001	-1.03267E-004	0.00000E+000	2.31991E-001	0.00000E+000	9	...........
	388	15.56	2.24084E-001	-1.10434E-004	0.00000E+000	2.23987E-001	0.00000E+000	9	...........
	392	15.72	2.16086E-001	-1.19417E-004	0.00000E+000	2.15983E-001	0.00000E+000	9	...........
	396	15.88	2.08100E-001	-1.28952E-004	0.00000E+000	2.07979E-001	0.00000E+000	9	...........
	400	16.04	2.00120E-001	-1.39799E-004	0.00000E+000	2.00025E-001	0.00000E+000	9	...........
	404	16.2	1.92116E-001	-1.52849E-004	0.00000E+000	1.92021E-001	0.00000E+000	9	...........
	408	16.36	1.84126E-001	-1.67178E-004	0.00000E+000	1.84017E-001	0.00000E+000	9	...........
	412	16.52	1.76105E-001	-1.84432E-004	0.00000E+000	1.76013E-001	0.00000E+000	9	...........
	416	16.68	1.68107E-001	-2.03860E-004	0.00000E+000	1.68009E-001	0.00000E+000	9	...........
	420	16.84	1.60099E-001	-2.27001E-004	0.00000E+000	1.60005E-001	0.00000E+000	9	...........
	424	17	1.52067E-001	-2.54058E-004	0.00000E+000	1.52000E-001	0.00000E+000	9	...........
	428	17.16	1.44091E-001	-2.85068E-004	0.00000E+000	1.43996E-001	0.00000E+000	9	...........
	432	17.32	1.36080E-001	-3.22379E-004	0.00000E+000	1.35992E-001	0.00000E+000	9	...........
	436	17.48	1.28077E-001	-3.64769E-004	0.00000E+000	1.27988E-001	0.00000E+000	9	...........
	440	17.64	1.20070E-001	-4.13938E-004	0.00000E+000	1.19984E-001	0.00000E+000	9	...........
	444	17.8	1.12060E-001	-4.69547E-004	0.00000E+000	1.11980E-001	0.00000E+000	9	...........
	448	17.96	1.04134E-001	-5.29653E-004	0.00000E+000	1.04026E-001	0.00000E+000	9	...........
	452	18.12	9.60993E-002	-5.95528E-004	0.00000E+000	9.60217E-002	0.00000E+000	9	...........
	456	18.28	8.81108E-002	-6.61843E-004	0.00000E+000	8.80176E-002	0.00000E+000	9	...........
	460	18.44	8.01199E-002	-7.26602E-004	0.00000E+000	8.00135E-002	0.00000E+000	9	...........
	464	18.6	7.20997E-002	-7.84654E-004	0.00000E+000	7.20094E-002	0.00000E+000	9	...........
	468	18.76	6.40936E-002	-8.32384E-004	0.00000E+000	6.40053E-002	0.00000E+000	9	...........
	472	18.92	5.60986E-002	-8.68420E-004	0.00000E+000	5.60012E-002	0.00000E+000	9	...........
	476	19.08	4.80740E-002	-8.89436E-004	0.00000E+000	4.79971E-002	0.00000E+000	10	...........
	480	19.24	4.00792E-002	-9.00346E-004	0.00000E+000	3.99930E-002	0.00000E+000	10	...........
	484	19.4	3.20762E-002	-9.01927E-004	0.00000E+000	3.19889E-002	0.00000E+000	10	...........
	488	19.56	2.40539E-002	-8.96277E-004	0.00000E+000	2.39848E-002	0.00000E+000	10	...........
	492	19.72	1.60712E-002	-8.88195E-004	0.00000E+000	1.59808E-002	0.00000E+000	10	...........
	496	19.88	8.10934E-003	-8.77331E-004	0.00000E+000	8.02667E-003	0.00000E+000	10	...........
	500	20.04	1.14123E-004	-8.69407E-004	0.00000E+000	2.25753E-005	0.00000E+000	10	...........
	504	20.2	-7.90738E-003	-8.63810E-004	0.00000E+000	-7.98152E-003	0.00000E+000	10	...........
	508	20.36	-1.59189E-002	-8.61282E-004	0.00000E+000	-1.59856E-002	0.00000E+000	10	...........
	512	20.52	-2.39049E-002	-8.63181E-004	0.00000E+000	-2.39897E-002	0.00000E+000	10	...........
	516	20.68	-3.19270E-002	-8.65938E-004	0.00000E+000	-3.19938E-002	0.00000E+000	10	...........
	520	20.84	-3.99481E-002	-8.73556E-004	0.00000E+000	-3.99979E-002	0.00000E+000	10	...........
	524	21	-4.79250E-002	-8.83989E-004	0.00000E+000	-4.80020E-002	0.00000E+000	10	...........
	528	21.16	-5.59507E-002	-8.95718E-004	0.00000E+000	-5.60061E-002	0.00000E+000	10	...........
	532	21.32	-6.39354E-002	-9.09840E-004	0.00000E+000	-6.40102E-002	0.00000E+000	10	...........
	536	21.48	-7.19346E-002	-9.22845E-004	0.00000E+000	-7.20143E-002	0.00000E+000	10	...........
	540	21.64	-7.99557E-002	-9.36346E-004	0.00000E+000	-8.00184E-002	0.00000E+000	10	...........
	544	21.8	-8.79566E-002	-9.48651E-004	0.00000E+000	-8.80225E-002	0.00000E+000	10	...........
	548	21.96	-9.59136E-002	-9.58008E-004	0.00000E+000	-9.59766E-002	0.00000E+000	10	...........
	552	22.12	-1.03941E-001	-9.66602E-004	0.00000E+000	-1.03981E-001	0.00000E+000	10	...........
	556	22.28	-1.11907E-001	-9.71281E-004	0.00000E+000	-1.11985E-001	0.00000E+000	10	...........
	560	22.44	-1.19914E-001	-9.74119E-004	0.00000E+000	-1.19989E-001	0.00000E+000	10	...........
	564	22.6	-1.27922E-001	-9.74770E-004	0.00000E+000	-1.27993E-001	0.00000E+000	10	...........
	568	22.76	-1.35927E-001	-9.71107E-004	0.00000E+000	-1.35997E-001	0.00000E+000	10	...........
	572	22.92	-1.43922E-001	-9.66632E-004	0.00000E+000	-1.44001E-001	0.00000E+000	10	...........
	576	23.08	-1.51912E-001	-9.58287E-004	0.00000E+000	-1.52005E-001	0.00000E+000	10	...........
	580	23.24	-1.59937E-001	-9.51620E-004	0.00000E+000	-1.60009E-001	0.00000E+000	10	...........
	584	23.4	-1.67944E-001	-9.37805E-004	0.00000E+000	-1.68013E-001	0.00000E+000	10	...........
	588	23.56	-1.75944E-001	-9.25481E-004	0.00000E+000	-1.76018E-001	0.00000E+000	10	...........
	592	23.72	-1.83956E-001	-9.13255E-004	0.00000E+000	-1.84022E-001	0.00000E+000	10	...........
	596	23.88	-1.91886E-001	-8.96559E-004	0.00000E+000	-1.91976E-001	0.00000E+000	10	...........
	600	24.04	-1.99914E-001	-8.81519E-004	0.00000E+000	-1.99980E-001	0.00000E+000	10	...........
	604	24.2	-2.07919E-001	-8.65542E-004	0.00000E+000	-2.07984E-001	0.00000E+000	10	...........
	608	24.36	-2.15915E-001	-8.49294E-004	0.00000E+000	-2.15988E-001	0.00000E+000	10	...........
	612	24.52	-2.23917E-001	-8.33388E-004	0.00000E+000	-2.23992E-001	0.00000E+000	10	...........
	616	24.68	-2.31942E-001	-8.16524E-004	0.00000E+000	-2.31996E-001	0.00000E+000	10	...........
	620	24.84	-2.39935E-001	-8.00908E-004	0.00000E+000	-2.40000E-001	0.00000E+000	10	...........
	624	25	-2.47938E-001	-7.86956E-004	0.00000E+000	-2.48004E-001	0.00000E+000	9	...........
	628	25.16	-2.55960E-001	-7.71632E-004	0.00000E+000	-2.56009E-001	0.00000E+000	9	...........
	632	25.32	-2.63954E-001	-7.57616E-004	0.00000E+000	-2.64013E-001	0.00000E+000	9	...........
	636	25.48	-2.71954E-001	-7.42909E-004	0.00000E+000	-2.72017E-001	0.00000E+000	9	...........
	640	25.64	-2.79956E-001	-7.29795E-004	0.00000E+000	-2.80021E-001	0.00000E+000	9	...........
	644	25.8	-2.87924E-001	-7.16238E-004	0.00000E+000	-2.87975E-001	0.00000E+000	9	...........
	648	25.96	-2.95922E-001	-7.02983E-004	0.00000E+000	-2.95979E-001	0.00000E+000	9	...........
	652	26.12	-3.03919E-001	-6.91392E-004	0.00000E+000	-3.03983E-001	0.00000E+000	9	...........
	656	26.28	-3.11920E-001	-6.78422E-004	0.00000E+000	-3.11987E-001	0.00000E+000	9	...........
	660	26.44	-3.19913E-001	-6.67980E-004	0.00000E+000	-3.19991E-001	0.00000E+000	9	...........
	664	26.6	-3.27932E-001	-6.56835E-004	0.00000E+000	-3.27995E-001	0.00000E+000	9	...........
	668	26.76	-3.35940E-001	-6.46679E-004	0.00000E+000	-3.36000E-001	0.00000E+000	9	...........
	672	26.92	-3.43925E-001	-6.37367E-004	0.00000E+000	-3.44004E-001	0.00000E+000	9	...........
	676	27.08	-3.51934E-001	-6.27896E-004	0.00000E+000	-3.52008E-001	0.00000E+000	9	...........
	680	27.24	-3.59976E-001	-6.19977E-004	0.00000E+000	-3.60012E-001	0.00000E+000	9	...........
	684	27.4	-3.67973E-001	-6.11850E-004	0.00000E+000	-3.68016E-001	0.00000E+000	9	...........
	688	27.56	-3.75958E-001	-6.04379E-004	0.00000E+000	-3.76020E-001	0.00000E+000	9	...........
	692	27.72	-3.83905E-001	-5.97761E-004	0.00000E+000	-3.83974E-001	0.00000E+000	9	...........
	696	27.88	-3.91914E-001	-5.90968E-004	0.00000E+000	-3.91978E-001	0.00000E+000	9	...........
	700	28.04	-3.99929E-001	-5.85850E-004	0.00000E+000	-3.99982E-001	0.00000E+000	9	...........
	704	28.2	-4.07912E-001	-5.80837E-004	0.00000E+000	-4.07986E-001	0.00000E+000	9	...........
	708	28.36	-4.15924E-001	-5.76364E-004	0.00000E+000	-4.15990E-001	0.00000E+000	9	...........
	712	28.52	-4.23938E-001	-5.73499E-004	0.00000E+000	-4.23995E-001	0.00000E+000	9	...........
	716	28.68	-4.31925E-001	-5.70065E-004	0.00000E+000	-4.31999E-001	0.00000E+000	9	...........
	720	28.84	-4.39948E-001	-5.69155E-004	0.00000E+000	-4.40003E-001	0.00000E+000	9	...........
	724	29	-4.47938E-001	-5.67363E-004	0.00000E+000	-4.48007E-001	0.00000E+000	9	...........
	728	29.16	-4.55956E-001	-5.67107E-004	0.00000E+000	-4.56011E-001	0.00000E+000	9	...........
	732	29.32	-4.63977E-001	-5.68094E-004	0.00000E+000	-4.64015E-001	0.00000E+000	9	...........
	736	29.48	-4.71976E-001	-5.68057E-004	0.00000E+000	-4.72019E-001	0.00000E+000	9	...........
	740	29.64	-4.79928E-001	-5.70518E-004	0.00000E+000	-4.79973E-001	0.00000E+000	9	...........
	744	29.8	-4.87940E-001	-5.72039E-004	0.00000E+000	-4.87977E-001	0.00000E+000	9	...........
	748	29.96	-4.95937E-001	-5.75869E-004	0.00000E+000	-4.95981E-001	0.00000E+000	9	...........
	752	30.12	-5.03945E-001	-5.80640E-004	0.00000E+000	-5.03986E-001	0.00000E+000	9	...........
	756	30.28	-5.11940E-001	-5.85360E-004	0.00000E+000	-5.11990E-001	0.00000E+000	9	...........
	760	30.44	-5.19941E-001	-5.93188E-004	0.00000E+000	-5.19994E-001	0.00000E+000	9	...........
	764	30.6	-5.27949E-001	-5.99937E-004	0.00000E+000	-5.27998E-001	0.00000E+000	9	...........
	768	30.76	-5.35940E-001	-6.09040E-004	0.00000E+000	-5.36002E-001	0.00000E+000	9	...........
	772	30.92	-5.43949E-001	-6.18274E-004	0.00000E+000	-5.44006E-001	0.00000E+000	9	...........
	776	31.08	-5.51954E-001	-6.25499E-004	0.00000E+000	-5.52010E-001	0.00000E+000	9	...........
	780	31.24	-5.59944E-001	-6.35684E-004	0.00000E+000	-5.60014E-001	0.00000E+000	9	...........
	784	31.4	-5.67968E-001	-6.41219E-004	0.00000E+000	-5.68018E-001	0.00000E+000	9	...........
	788	31.56	-5.75909E-001	-6.46710E-004	0.00000E+000	-5.75972E-001	0.00000E+000	9	...........
	792	31.72	-5.83915E-001	-6.53571E-004	0.00000E+000	-5.83977E-001	0.00000E+000	9	...........
	796	31.88	-5.91931E-001	-6.56085E-004	0.00000E+000	-5.91981E-001	0.00000E+000	9	...........
	800	32.04	-5.99923E-001	-6.60521E-004	0.00000E+000	-5.99985E-001	0.00000E+000	9	...........
	804	32.2	-6.07926E-001	-6.60473E-004	0.00000E+000	-6.07989E-001	0.00000E+000	9	...........
	808	32.36	-6.15941E-001	-6.60482E-004	0.00000E+000	-6.15993E-001	0.00000E+000	9	...........
	812	32.52	-6.23936E-001	-6.58434E-004	0.00000E+000	-6.23997E-001	0.00000E+000	9	...........
	816	32.68	-6.31947E-001	-6.52816E-004	0.00000E+000	-6.32001E-001	0.00000E+000	9	...........
	820	32.84	-6.39937E-001	-6.47414E-004	0.00000E+000	-6.40005E-001	0.00000E+000	9	...........
	824	33	-6.47963E-001	-6.35271E-004	0.00000E+000	-6.48009E-001	0.00000E+000	9	...........
	828	33.16	-6.55965E-001	-6.22952E-004	0.00000E+000	-6.56013E-001	0.00000E+000	9	...........
	832	33.32	-6.63964E-001	-6.10076E-004	0.00000E+000	-6.64017E-001	0.00000E+000	9	...........
	836	33.48	-6.71994E-001	-5.98363E-004	0.00000E+000	-6.72022E-001	0.00000E+000	9	...........
	840	33.64	-6.79947E-001	-5.89563E-004	0.00000E+000	-6.79976E-001	0.00000E+000	9	...........
	844	33.8	-6.87929E-001	-5.80218E-004	0.00000E+000	-6.87980E-001	0.00000E+000	9	...........
	848	33.96	-6.95953E-001	-5.73750E-004	0.00000E+000	-6.95984E-001	0.00000E+000	9	...........
	852	34.12	-7.03952E-001	-5.68794E-004	0.00000E+000	-7.03988E-001	0.00000E+000	9	...........
	856	34.28	-7.11946E-001	-5.61416E-004	0.00000E+000	-7.11992E-001	0.00000E+000	9	...........
	860	34.44	-7.19961E-001	-5.61241E-004	0.00000E+000	-7.19996E-001	0.00000E+000	9	...........
	864	34.6	-7.27952E-001	-5.62434E-004	0.00000E+000	-7.28000E-001	0.00000E+000	9	...........
	868	34.76	-7.35959E-001	-5.72745E-004	0.00000E+000	-7.36004E-001	0.00000E+000	9	...........
	872	34.92	-7.43975E-001	-5.95846E-004	0.00000E+000	-7.44008E-001	0.00000E+000	9	...........
	876	35.08	-7.51962E-001	-6.33399E-004	0.00000E+000	-7.52013E-001	0.00000E+000	9	...........
	880	35.24	-7.59964E-001	-6.96165E-004	0.00000E+000	-7.60017E-001	0.00000E+000	9	...........
	884	35.4	-7.67964E-001	-7.80335E-004	0.00000E+000	-7.68021E-001	0.00000E+000	9	...........
	888	35.56	-7.75929E-001	-8.90560E-004	0.00000E+000	-7.75975E-001	0.00000E+000	9	...........
	892	35.72	-7.83947E-001	-1.02878E-003	0.00000E+000	-7.83979E-001	0.00000E+000	10	...........
	896	35.88	-7.91936E-001	-1.19422E-003	0.00000E+000	-7.91983E-001	0.00000E+000	10	...........
	900	36.04	-7.99948E-001	-1.39311E-003	0.00000E+000	-7.99987E-001	0.00000E+000	10	...........
	904	36.2	-7.91931E-001	-7.94360E-004	0.00000E+000	-7.91983E-001	0.00000E+000	10	...........
	908	36.36	-7.83949E-001	-5.28659E-004	0.00000E+000	-7.83979E-001	0.00000E+000	9	...........
	912	36.52	-7.75934E-001	-3.77253E-004	0.00000E+000	-7.75975E-001	0.00000E+000	9	...........
	916	36.68	-7.67978E-001	-2.89772E-004	0.00000E+000	-7.68021E-001	0.00000E+000	9	...........
	920	36.84	-7.59978E-001	-2.42015E-004	0.00000E+000	-7.60017E-001	0.00000E+000	9	...........
	924	37	-7.51967E-001	-2.18234E-004	0.00000E+000	-7.52013E-001	0.00000E+000	9	...........
	928	37.16	-7.43972E-001	-2.11952E-004	0.00000E+000	-7.44008E-001	0.00000E+000	9	...........
	932	37.32	-7.35957E-001	-2.17199E-004	0.00000E+000	-7.36004E-001	0.00000E+000	9	...........
	936	37.48	-7.27948E-001	-2.24729E-004	0.00000E+000	-7.28000E-001	0.00000E+000	9	...........
	940	37.64	-7.19969E-001	-2.37597E-004	0.00000E+000	-7.19996E-001	0.00000E+000	9	...........
	944	37.8	-7.11956E-001	-2.47397E-004	0.00000E+000	-7.11992E-001	0.00000E+000	9	...........
	948	37.96	-7.03936E-001	-2.56543E-004	0.00000E+000	-7.03988E-001	0.00000E+000	9	...........
	952	38.12	-6.95944E-001	-2.64402E-004	0.00000E+000	-6.95984E-001	0.00000E+000	9	...........
	956	38.28	-6.87925E-001	-2.68330E-004	0.00000E+000	-6.87980E-001	0.00000E+000	9	...........
	960	38.44	-6.79949E-001	-2.72437E-004	0.00000E+000	-6.79976E-001	0.00000E+000	9	...........
	964	38.6	-6.71987E-001	-2.74446E-004	0.00000E+000	-6.72022E-001	0.00000E+000	9	...........
	968	38.76	-6.63969E-001	-2.73611E-004	0.00000E+000	-6.64017E-001	0.00000E+000	9	...........
	972	38.92	-6.55971E-001	-2.73117E-004	0.00000E+000	-6.56013E-001	0.00000E+000	9	...........
	976	39.08	-6.47957E-001	-2.68150E-004	0.00000E+000	-6.48009E-001	0.00000E+000	9	...........
	980	39.24	-6.39947E-001	-2.66426E-004	0.00000E+000	-6.40005E-001	0.00000E+000	9	...........
	984	39.4	-6.31945E-001	-2.60185E-004	0.00000E+000	-6.32001E-001	0.00000E+000	9	...........
	988	39.56	-6.23948E-001	-2.53658E-004	0.00000E+000	-6.23997E-001	0.00000E+000	9	...........
	992	39.72	-6.15960E-001	-2.47500E-004	0.00000E+000	-6.15993E-001	0.00000E+000	9	...........
	996	39.88	-6.07939E-001	-2.38693E-004	0.00000E+000	-6.07989E-001	0.00000E+000	9	...........
	1000	40.04	-5.99918E-001	-2.31648E-004	0.00000E+000	-5.99985E-001	0.00000E+000	9	...........
	1004	40.2	-5.91926E-001	-2.22516E-004	0.00000E+000	-5.91981E-001	0.00000E+000	9	...........
	1008	40.36	-5.83923E-001	-2.14907E-004	0.00000E+000	-5.83977E-001	0.00000E+000	9	...........
	1012	40.52	-5.75913E-001	-2.08390E-004	0.00000E+000	-5.75972E-001	0.00000E+000	9	...........
	1016	40.68	-5.67966E-001	-2.00961E-004	0.00000E+000	-5.68018E-001	0.00000E+000	9	...........
	1020	40.84	-5.59947E-001	-1.96876E-004	0.00000E+000	-5.60014E-001	0.00000E+000	9	...........
	1024	41	-5.51954E-001	-1.91398E-004	0.00000E+000	-5.52010E-001	0.00000E+000	9	...........
	1028	41.16	-5.43951E-001	-1.88017E-004	0.00000E+000	-5.44006E-001	0.00000E+000	9	...........
	1032	41.32	-5.35938E-001	-1.86385E-004	0.00000E+000	-5.36002E-001	0.00000E+000	9	...........
	1036	41.48	-5.27938E-001	-1.82524E-004	0.00000E+000	-5.27998E-001	0.00000E+000	9	...........
	1040	41.64	-5.19951E-001	-1.83862E-004	0.00000E+000	-5.19994E-001	0.00000E+000	9	...........
	1044	41.8	-5.11951E-001	-1.83779E-004	0.00000E+000	-5.11990E-001	0.00000E+000	9	...........
	1048	41.96	-5.03957E-001	-1.85307E-004	0.00000E+000	-5.03986E-001	0.00000E+000	9	...........
	1052	42.12	-4.95939E-001	-1.89536E-004	0.00000E+000	-4.95981E-001	0.00000E+000	9	...........
	1056	42.28	-4.87942E-001	-1.92812E-004	0.00000E+000	-4.87977E-001	0.00000E+000	9	...........
	1060	42.44	-4.79921E-001	-2.00009E-004	0.00000E+000	-4.79973E-001	0.00000E+000	9	...........
	1064	42.6	-4.71971E-001	-2.06417E-004	0.00000E+000	-4.72019E-001	0.00000E+000	9	...........
	1068	42.76	-4.63983E-001	-2.12902E-004	0.00000E+000	-4.64015E-001	0.00000E+000	9	...........
	1072	42.92	-4.55967E-001	-2.21328E-004	0.00000E+000	-4.56011E-001	0.00000E+000	9	...........
	1076	43.08	-4.47943E-001	-2.27591E-004	0.00000E+000	-4.48007E-001	0.00000E+000	9	...........
	1080	43.24	-4.39968E-001	-2.36746E-004	0.00000E+000	-4.40003E-001	0.00000E+000	9	...........
	1084	43.4	-4.31930E-001	-2.43128E-004	0.00000E+000	-4.31999E-001	0.00000E+000	9	...........
	1088	43.56	-4.23950E-001	-2.49578E-004	0.00000E+000	-4.23995E-001	0.00000E+000	9	...........
	1092	43.72	-4.15930E-001	-2.57213E-004	0.00000E+000	-4.15990E-001	0.00000E+000	9	...........
	1096	43.88	-4.07915E-001	-2.62409E-004	0.00000E+000	-4.07986E-001	0.00000E+000	9	...........
	1100	44.04	-3.99935E-001	-2.67979E-004	0.00000E+000	-3.99982E-001	0.00000E+000	9	...........
	1104	44.2	-3.91928E-001	-2.71980E-004	0.00000E+000	-3.91978E-001	0.00000E+000	9	...........
	1108	44.36	-3.83906E-001	-2.74344E-004	0.00000E+000	-3.83974E-001	0.00000E+000	9	...........
	1112	44.52	-3.75972E-001	-2.76527E-004	0.00000E+000	-3.76020E-001	0.00000E+000	9	...........
	1116	44.68	-3.67970E-001	-2.75849E-004	0.00000E+000	-3.68016E-001	0.00000E+000	9	...........
	1120	44.84	-3.59972E-001	-2.75822E-004	0.00000E+000	-3.60012E-001	0.00000E+000	9	...........
	1124	45	-3.51947E-001	-2.74797E-004	0.00000E+000	-3.52008E-001	0.00000E+000	9	...........
	1128	45.16	-3.43937E-001	-2.72429E-004	0.00000E+000	-3.44004E-001	0.00000E+000	9	...........
	1132	45.32	-3.35949E-001	-2.71336E-004	0.00000E+000	-3.36000E-001	0.00000E+000	9	...........
	1136	45.48	-3.27943E-001	-2.68078E-004	0.00000E+000	-3.27995E-001	0.00000E+000	9	...........
	1140	45.64	-3.19919E-001	-2.65848E-004	0.00000E+000	-3.19991E-001	0.00000E+000	9	...........
	1144	45.8	-3.11932E-001	-2.63211E-004	0.00000E+000	-3.11987E-001	0.00000E+000	9	...........
	1148	45.96	-3.03927E-001	-2.59815E-004	0.00000E+000	-3.03983E-001	0.00000E+000	9	...........
	1152	46.12	-2.95929E-001	-2.57396E-004	0.00000E+000	-2.95979E-001	0.00000E+000	9	...........
	1156	46.28	-2.87939E-001	-2.53454E-004	0.00000E+000	-2.87975E-001	0.00000E+000	9	...........
	1160	46.44	-2.79966E-001	-2.50486E-004	0.00000E+000	-2.80021E-001	0.00000E+000	9	...........
	1164	46.6	-2.71966E-001	-2.47105E-004	0.00000E+000	-2.72017E-001	0.00000E+000	9	...........
	1168	46.76	-2.63967E-001	-2.43089E-004	0.00000E+000	-2.64013E-001	0.00000E+000	9	...........
	1172	46.92	-2.55976E-001	-2.40031E-004	0.00000E+000	-2.56009E-001	0.00000E+000	9	...........
	1176	47.08	-2.47954E-001	-2.35563E-004	0.00000E+000	-2.48004E-001	0.00000E+000	9	...........
	1180	47.24	-2.39945E-001	-2.31891E-004	0.00000E+000	-2.40000E-001	0.00000E+000	9	...........
	1184	47.4	-2.31938E-001	-2.27896E-004	0.00000E+000	-2.31996E-001	0.00000E+000	9	...........
	1188	47.56	-2.23931E-001	-2.23374E-004	0.00000E+000	-2.23992E-001	0.00000E+000	9	...........
	1192	47.72	-2.15916E-001	-2.19694E-004	0.00000E+000	-2.15988E-001	0.00000E+000	9	...........
	1196	47.88	-2.07920E-001	-2.14577E-004	0.00000E+000	-2.07984E-001	0.00000E+000	9	...........
	1200	48.04	-1.99919E-001	-2.10506E-004	0.00000E+000	-1.99980E-001	0.00000E+000	9	...........
	1204	48.2	-1.91896E-001	-2.05755E-004	0.00000E+000	-1.91976E-001	0.00000E+000	9	...........
	1208	48.36	-1.83964E-001	-2.00421E-004	0.00000E+000	-1.84022E-001	0.00000E+000	9	...........
	1212	48.52	-1.75943E-001	-1.96012E-004	0.00000E+000	-1.76018E-001	0.00000E+000	9	...........
	1216	48.68	-1.67948E-001	-1.90179E-004	0.00000E+000	-1.68013E-001	0.00000E+000	9	...........
	1220	48.84	-1.59942E-001	-1.85195E-004	0.00000E+000	-1.60009E-001	0.00000E+000	9	...........
	1224	49	-1.51927E-001	-1.79974E-004	0.00000E+000	-1.52005E-001	0.00000E+000	9	...........
	1228	49.16	-1.43935E-001	-1.73891E-004	0.00000E+000	-1.44001E-001	0.00000E+000	9	...........
	1232	49.32	-1.35928E-001	-1.68847E-004	0.00000E+000	-1.35997E-001	0.00000E+000	9	...........
	1236	49.48	-1.27918E-001	-1.62413E-004	0.00000E+000	-1.27993E-001	0.00000E+000	9	...........
	1240	49.64	-1.19922E-001	-1.57005E-004	0.00000E+000	-1.19989E-001	0.00000E+000	9	...........
	1244	49.8	-1.11923E-001	-1.51016E-004	0.00000E+000	-1.11985E-001	0.00000E+000	9	...........
	1248	49.96	-1.03944E-001	-1.44700E-004	0.00000E+000	-1.03981E-001	0.00000E+000	9	...........
	1252	50.12	-9.59290E-002	-1.38966E-004	0.00000E+000	-9.59766E-002	0.00000E+000	9	...........
	1256	50.28	-8.79659E-002	-1.32326E-004	0.00000E+000	-8.80225E-002	0.00000E+000	9	...........
	1260	50.44	-7.99588E-002	-1.26379E-004	0.00000E+000	-8.00184E-002	0.00000E+000	9	...........
	1264	50.6	-7.19438E-002	-1.20077E-004	0.00000E+000	-7.20143E-002	0.00000E+000	9	...........
	1268	50.76	-6.39548E-002	-1.13178E-004	0.00000E+000	-6.40102E-002	0.00000E+000	9	...........
	1272	50.92	-5.59615E-002	-1.07361E-004	0.00000E+000	-5.60061E-002	0.00000E+000	9	...........
	1276	51.08	-4.79262E-002	-1.00164E-004	0.00000E+000	-4.80020E-002	0.00000E+000	9	...........
	1280	51.24	-3.99456E-002	-9.39718E-005	0.00000E+000	-3.99979E-002	0.00000E+000	9	...........
	1284	51.4	-3.19310E-002	-8.73870E-005	0.00000E+000	-3.19938E-002	0.00000E+000	9	...........
	1288	51.56	-2.39120E-002	-8.01077E-005	0.00000E+000	-2.39897E-002	0.00000E+000	9	...........
	1292	51.72	-1.59191E-002	-7.38485E-005	0.00000E+000	-1.59856E-002	0.00000E+000	8	...........
	1296	51.88	-7.90884E-003	-6.61746E-005	0.00000E+000	-7.98152E-003	0.00000E+000	8	...........
	1300	52.04	1.02858E-004	-5.97672E-005	0.00000E+000	2.25753E-005	0.00000E+000	8	...........
	1304	52.2	8.11789E-003	-5.28482E-005	0.00000E+000	8.02667E-003	0.00000E+000	8	...........
	1308	52.36	1.60639E-002	-4.55307E-005	0.00000E+000	1.59808E-002	0.00000E+000	8	...........
	1312	52.52	2.40581E-002	-3.92968E-005	0.00000E+000	2.39848E-002	0.00000E+000	8	...........
	1316	52.68	3.20729E-002	-3.14290E-005	0.00000E+000	3.19889E-002	0.00000E+000	8	...........
	1320	52.84	4.00716E-002	-2.49353E-005	0.00000E+000	3.99930E-002	0.00000E+000	8	...........
	1324	53	4.80675E-002	-1.77756E-005	0.00000E+000	4.79971E-002	0.00000E+000	8	...........
	1328	53.16	5.60794E-002	-1.01959E-005	0.00000E+000	5.60012E-002	0.00000E+000	8	...........
	1332	53.32	6.41376E-002	-2.17772E-006	0.00000E+000	6.40053E-002	0.00000E+000	7	...........
	1336	53.48	7.21172E-002	4.97992E-006	0.00000E+000	7.20094E-002	0.00000E+000	7	.....h.....
	1340	53.64	8.00928E-002	1.14335E-005	0.00000E+000	8.00135E-002	0.00000E+000	8	...........
	1344	53.8	8.80991E-002	1.93610E-005	0.00000E+000	8.80176E-002	0.00000E+000	8	...........
	1348	53.96	9.60874E-002	2.76995E-005	0.00000E+000	9.60217E-002	0.00000E+000	8	...........
	1352	54.12	1.04118E-001	3.50853E-005	0.00000E+000	1.04026E-001	0.00000E+000	8	...........
	1356	54.28	1.12044E-001	4.45119E-005	0.00000E+000	1.11980E-001	0.00000E+000	8	...........
	1360	54.44	1.20058E-001	5.16003E-005	0.00000E+000	1.19984E-001	0.00000E+000	8	...........
	1364	54.6	1.28062E-001	6.01326E-005	0.00000E+000	1.27988E-001	0.00000E+000	8	...........
	1368	54.76	1.36060E-001	6.86727E-005	0.00000E+000	1.35992E-001	0.00000E+000	8	...........
	1372	54.92	1.44076E-001	7.67473E-005	0.00000E+000	1.43996E-001	0.00000E+000	8	...........
	1376	55.08	1.52066E-001	8.64010E-005	0.00000E+000	1.52000E-001	0.00000E+000	8	...........
	1380	55.24	1.60099E-001	9.48279E-005	0.00000E+000	1.60005E-001	0.00000E+000	9	...........
	1384	55.4	1.68091E-001	1.04675E-004	0.00000E+000	1.68009E-001	0.00000E+000	9	...........
	1388	55.56	1.76097E-001	1.15304E-004	0.00000E+000	1.76013E-001	0.00000E+000	9	...........
	1392	55.72	1.84122E-001	1.25141E-004	0.00000E+000	1.84017E-001	0.00000E+000	9	...........
	1396	55.88	1.92098E-001	1.36530E-004	0.00000E+000	1.92021E-001	0.00000E+000	9	...........
	1400	56.04	2.00126E-001	1.46849E-004	0.00000E+000	2.00025E-001	0.00000E+000	9	...........
	1404	56.2	2.08082E-001	1.58173E-004	0.00000E+000	2.07979E-001	0.00000E+000	9	...........
	1408	56.36	2.16070E-001	1.69727E-004	0.00000E+000	2.15983E-001	0.00000E+000	9	...........
	1412	56.52	2.24080E-001	1.80498E-004	0.00000E+000	2.23987E-001	0.00000E+000	9	...........
	1416	56.68	2.32109E-001	1.92383E-004	0.00000E+000	2.31991E-001	0.00000E+000	9	...........
	1420	56.84	2.40091E-001	2.02122E-004	0.00000E+000	2.39995E-001	0.00000E+000	9	...........
	1424	57	2.48089E-001	2.12202E-004	0.00000E+000	2.48000E-001	0.00000E+000	9	...........
	1428	57.16	2.56095E-001	2.21387E-004	0.00000E+000	2.56004E-001	0.00000E+000	9	...........
	1432	57.32	2.64118E-001	2.28443E-004	0.00000E+000	2.64008E-001	0.00000E+000	9	...........
	1436	57.48	2.72123E-001	2.35725E-004	0.00000E+000	2.72012E-001	0.00000E+000	9	...........
[...]
	18487	739.52	2.60387E-002	-7.38498E-004	0.00000E+000	2.59859E-002	0.00000E+000	9	...........
	18489	739.6	2.20167E-002	-7.38273E-004	0.00000E+000	2.19838E-002	0.00000E+000	9	...........
	18491	739.68	1.80178E-002	-7.38056E-004	0.00000E+000	1.79818E-002	0.00000E+000	9	...........
	18493	739.76	1.40111E-002	-7.38187E-004	0.00000E+000	1.39797E-002	0.00000E+000	9	...........
	18495	739.84	9.99196E-003	-7.38505E-004	0.00000E+000	9.97768E-003	0.00000E+000	9	...........
	18497	739.92	6.06068E-003	-7.38175E-004	0.00000E+000	6.02565E-003	0.00000E+000	9	...........
	18499	740	2.06516E-003	-7.38567E-004	0.00000E+000	2.02360E-003	0.00000E+000	9	...........
	18501	740.08	-1.96312E-003	-7.39818E-004	0.00000E+000	-1.97845E-003	0.00000E+000	9	...........
	18503	740.16	-5.96072E-003	-7.41864E-004	0.00000E+000	-5.98050E-003	0.00000E+000	9	...........
	18505	740.24	-9.96855E-003	-7.44642E-004	0.00000E+000	-9.98255E-003	0.00000E+000	9	...........
	18507	740.32	-1.39676E-002	-7.47248E-004	0.00000E+000	-1.39846E-002	0.00000E+000	9	...........
	18509	740.4	-1.79684E-002	-7.50664E-004	0.00000E+000	-1.79866E-002	0.00000E+000	9	...........
	18511	740.48	-2.19628E-002	-7.55544E-004	0.00000E+000	-2.19887E-002	0.00000E+000	9	...........
	18513	740.56	-2.59882E-002	-7.61515E-004	0.00000E+000	-2.59908E-002	0.00000E+000	9	...........
	18515	740.64	-2.99741E-002	-7.68480E-004	0.00000E+000	-2.99928E-002	0.00000E+000	9	...........
	18517	740.72	-3.39715E-002	-7.75704E-004	0.00000E+000	-3.39949E-002	0.00000E+000	9	...........
	18519	740.8	-3.79691E-002	-7.83460E-004	0.00000E+000	-3.79969E-002	0.00000E+000	9	...........
	18521	740.88	-4.19903E-002	-7.92145E-004	0.00000E+000	-4.19990E-002	0.00000E+000	9	...........
	18523	740.96	-4.59842E-002	-8.01782E-004	0.00000E+000	-4.60010E-002	0.00000E+000	9	...........
	18525	741.04	-4.99743E-002	-8.11635E-004	0.00000E+000	-5.00031E-002	0.00000E+000	9	...........
	18527	741.12	-5.39923E-002	-8.21487E-004	0.00000E+000	-5.40051E-002	0.00000E+000	9	...........
	18529	741.2	-5.80087E-002	-8.31281E-004	0.00000E+000	-5.80072E-002	0.00000E+000	9	...........
	18531	741.28	-6.19890E-002	-8.41418E-004	0.00000E+000	-6.20092E-002	0.00000E+000	9	...........
	18533	741.36	-6.60020E-002	-8.51840E-004	0.00000E+000	-6.60113E-002	0.00000E+000	9	...........
	18535	741.44	-6.99990E-002	-8.62300E-004	0.00000E+000	-7.00133E-002	0.00000E+000	9	...........
	18537	741.52	-7.39962E-002	-8.71752E-004	0.00000E+000	-7.40153E-002	0.00000E+000	9	...........
	18539	741.6	-7.80176E-002	-8.80584E-004	0.00000E+000	-7.80174E-002	0.00000E+000	9	...........
	18541	741.68	-8.20144E-002	-8.89212E-004	0.00000E+000	-8.20194E-002	0.00000E+000	9	...........
	18543	741.76	-8.60208E-002	-8.96531E-004	0.00000E+000	-8.60215E-002	0.00000E+000	10	...........
	18545	741.84	-8.99723E-002	-9.03411E-004	0.00000E+000	-8.99735E-002	0.00000E+000	10	...........
	18547	741.92	-9.39795E-002	-9.10220E-004	0.00000E+000	-9.39756E-002	0.00000E+000	10	...........
	18549	742	-9.79752E-002	-9.15668E-004	0.00000E+000	-9.79776E-002	0.00000E+000	10	...........
	18551	742.08	-1.01988E-001	-9.20679E-004	0.00000E+000	-1.01980E-001	0.00000E+000	10	...........
	18553	742.16	-1.05981E-001	-9.24886E-004	0.00000E+000	-1.05982E-001	0.00000E+000	10	...........
	18555	742.24	-1.09980E-001	-9.28605E-004	0.00000E+000	-1.09984E-001	0.00000E+000	10	...........
	18557	742.32	-1.13972E-001	-9.31151E-004	0.00000E+000	-1.13986E-001	0.00000E+000	10	...........
	18559	742.4	-1.17977E-001	-9.32698E-004	0.00000E+000	-1.17988E-001	0.00000E+000	10	...........
	18561	742.48	-1.21984E-001	-9.33179E-004	0.00000E+000	-1.21990E-001	0.00000E+000	10	...........
	18563	742.56	-1.25976E-001	-9.33696E-004	0.00000E+000	-1.25992E-001	0.00000E+000	10	...........
	18565	742.64	-1.29996E-001	-9.33345E-004	0.00000E+000	-1.29994E-001	0.00000E+000	10	...........
	18567	742.72	-1.33989E-001	-9.31438E-004	0.00000E+000	-1.33996E-001	0.00000E+000	10	...........
	18569	742.8	-1.37988E-001	-9.28968E-004	0.00000E+000	-1.37998E-001	0.00000E+000	10	...........
	18571	742.88	-1.42008E-001	-9.26093E-004	0.00000E+000	-1.42000E-001	0.00000E+000	10	...........
	18573	742.96	-1.45996E-001	-9.23059E-004	0.00000E+000	-1.46002E-001	0.00000E+000	10	...........
	18575	743.04	-1.50004E-001	-9.19334E-004	0.00000E+000	-1.50004E-001	0.00000E+000	10	...........
	18577	743.12	-1.54032E-001	-9.14719E-004	0.00000E+000	-1.54006E-001	0.00000E+000	10	...........
	18579	743.2	-1.58027E-001	-9.09481E-004	0.00000E+000	-1.58008E-001	0.00000E+000	10	...........
	18581	743.28	-1.62012E-001	-9.03974E-004	0.00000E+000	-1.62010E-001	0.00000E+000	10	...........
	18583	743.36	-1.66013E-001	-8.98863E-004	0.00000E+000	-1.66012E-001	0.00000E+000	10	...........
	18585	743.44	-1.70023E-001	-8.94034E-004	0.00000E+000	-1.70015E-001	0.00000E+000	10	...........
	18587	743.52	-1.74018E-001	-8.87331E-004	0.00000E+000	-1.74017E-001	0.00000E+000	10	...........
	18589	743.6	-1.78003E-001	-8.79823E-004	0.00000E+000	-1.78019E-001	0.00000E+000	10	...........
	18591	743.68	-1.82026E-001	-8.72972E-004	0.00000E+000	-1.82021E-001	0.00000E+000	10	...........
	18593	743.76	-1.86035E-001	-8.66215E-004	0.00000E+000	-1.86023E-001	0.00000E+000	10	...........
	18595	743.84	-1.89975E-001	-8.58334E-004	0.00000E+000	-1.89975E-001	0.00000E+000	10	...........
	18597	743.92	-1.93981E-001	-8.49590E-004	0.00000E+000	-1.93977E-001	0.00000E+000	10	...........
	18599	744	-1.97976E-001	-8.42478E-004	0.00000E+000	-1.97979E-001	0.00000E+000	10	...........
	18601	744.08	-2.01970E-001	-8.33955E-004	0.00000E+000	-2.01981E-001	0.00000E+000	10	...........
	18603	744.16	-2.05987E-001	-8.26283E-004	0.00000E+000	-2.05983E-001	0.00000E+000	10	...........
	18605	744.24	-2.09975E-001	-8.18449E-004	0.00000E+000	-2.09985E-001	0.00000E+000	10	...........
	18607	744.32	-2.13988E-001	-8.10560E-004	0.00000E+000	-2.13987E-001	0.00000E+000	10	...........
	18609	744.4	-2.18007E-001	-8.01908E-004	0.00000E+000	-2.17989E-001	0.00000E+000	10	...........
	18611	744.48	-2.21975E-001	-7.95445E-004	0.00000E+000	-2.21991E-001	0.00000E+000	9	...........
	18613	744.56	-2.25976E-001	-7.87636E-004	0.00000E+000	-2.25993E-001	0.00000E+000	9	...........
	18615	744.64	-2.29979E-001	-7.80012E-004	0.00000E+000	-2.29995E-001	0.00000E+000	9	...........
	18617	744.72	-2.34005E-001	-7.71905E-004	0.00000E+000	-2.33997E-001	0.00000E+000	9	...........
	18619	744.8	-2.38007E-001	-7.63726E-004	0.00000E+000	-2.37999E-001	0.00000E+000	9	...........
	18621	744.88	-2.41987E-001	-7.55856E-004	0.00000E+000	-2.42001E-001	0.00000E+000	9	...........
	18623	744.96	-2.46011E-001	-7.48472E-004	0.00000E+000	-2.46003E-001	0.00000E+000	9	...........
	18625	745.04	-2.49999E-001	-7.41417E-004	0.00000E+000	-2.50005E-001	0.00000E+000	9	...........
	18627	745.12	-2.53991E-001	-7.33951E-004	0.00000E+000	-2.54008E-001	0.00000E+000	9	...........
	18629	745.2	-2.58029E-001	-7.26167E-004	0.00000E+000	-2.58010E-001	0.00000E+000	9	...........
	18631	745.28	-2.62020E-001	-7.18715E-004	0.00000E+000	-2.62012E-001	0.00000E+000	9	...........
	18633	745.36	-2.66025E-001	-7.11962E-004	0.00000E+000	-2.66014E-001	0.00000E+000	9	...........
	18635	745.44	-2.70032E-001	-7.05057E-004	0.00000E+000	-2.70016E-001	0.00000E+000	9	...........
	18637	745.52	-2.74024E-001	-6.98173E-004	0.00000E+000	-2.74018E-001	0.00000E+000	9	...........
	18639	745.6	-2.78013E-001	-6.90786E-004	0.00000E+000	-2.78020E-001	0.00000E+000	9	...........
	18641	745.68	-2.82047E-001	-6.83538E-004	0.00000E+000	-2.82022E-001	0.00000E+000	9	...........
	18643	745.76	-2.85984E-001	-6.76810E-004	0.00000E+000	-2.85974E-001	0.00000E+000	9	...........
	18645	745.84	-2.89989E-001	-6.70868E-004	0.00000E+000	-2.89976E-001	0.00000E+000	9	...........
	18647	745.92	-2.93979E-001	-6.64009E-004	0.00000E+000	-2.93978E-001	0.00000E+000	9	...........
	18649	746	-2.97998E-001	-6.57494E-004	0.00000E+000	-2.97980E-001	0.00000E+000	9	...........
	18651	746.08	-3.01995E-001	-6.50412E-004	0.00000E+000	-3.01982E-001	0.00000E+000	9	...........
	18653	746.16	-3.05986E-001	-6.44321E-004	0.00000E+000	-3.05984E-001	0.00000E+000	9	...........
	18655	746.24	-3.09995E-001	-6.38912E-004	0.00000E+000	-3.09986E-001	0.00000E+000	9	...........
	18657	746.32	-3.13988E-001	-6.32675E-004	0.00000E+000	-3.13988E-001	0.00000E+000	9	...........
	18659	746.4	-3.17984E-001	-6.25985E-004	0.00000E+000	-3.17990E-001	0.00000E+000	9	...........
	18661	746.48	-3.22013E-001	-6.20097E-004	0.00000E+000	-3.21992E-001	0.00000E+000	9	...........
	18663	746.56	-3.25984E-001	-6.15048E-004	0.00000E+000	-3.25994E-001	0.00000E+000	9	...........
	18665	746.64	-3.29992E-001	-6.10050E-004	0.00000E+000	-3.29996E-001	0.00000E+000	9	...........
	18667	746.72	-3.34016E-001	-6.04751E-004	0.00000E+000	-3.33999E-001	0.00000E+000	9	...........
	18669	746.8	-3.38004E-001	-5.99444E-004	0.00000E+000	-3.38001E-001	0.00000E+000	9	...........
	18671	746.88	-3.41995E-001	-5.94730E-004	0.00000E+000	-3.42003E-001	0.00000E+000	9	...........
	18673	746.96	-3.46017E-001	-5.90055E-004	0.00000E+000	-3.46005E-001	0.00000E+000	9	...........
	18675	747.04	-3.50004E-001	-5.85846E-004	0.00000E+000	-3.50007E-001	0.00000E+000	9	...........
	18677	747.12	-3.54008E-001	-5.81467E-004	0.00000E+000	-3.54009E-001	0.00000E+000	9	...........
	18679	747.2	-3.57999E-001	-5.76733E-004	0.00000E+000	-3.58011E-001	0.00000E+000	9	...........
	18681	747.28	-3.62028E-001	-5.72591E-004	0.00000E+000	-3.62013E-001	0.00000E+000	9	...........
	18683	747.36	-3.66016E-001	-5.69117E-004	0.00000E+000	-3.66015E-001	0.00000E+000	9	...........
	18685	747.44	-3.70011E-001	-5.65803E-004	0.00000E+000	-3.70017E-001	0.00000E+000	9	...........
	18687	747.52	-3.74032E-001	-5.62284E-004	0.00000E+000	-3.74019E-001	0.00000E+000	9	...........
	18689	747.6	-3.78029E-001	-5.58725E-004	0.00000E+000	-3.78021E-001	0.00000E+000	9	...........
	18691	747.68	-3.81973E-001	-5.55120E-004	0.00000E+000	-3.81973E-001	0.00000E+000	9	...........
	18693	747.76	-3.85988E-001	-5.52437E-004	0.00000E+000	-3.85975E-001	0.00000E+000	9	...........
	18695	747.84	-3.89986E-001	-5.50286E-004	0.00000E+000	-3.89977E-001	0.00000E+000	9	...........
	18697	747.92	-3.93980E-001	-5.47609E-004	0.00000E+000	-3.93979E-001	0.00000E+000	9	...........
	18699	748	-3.97992E-001	-5.44434E-004	0.00000E+000	-3.97981E-001	0.00000E+000	9	...........
	18701	748.08	-4.01983E-001	-5.42221E-004	0.00000E+000	-4.01983E-001	0.00000E+000	9	...........
	18703	748.16	-4.05985E-001	-5.40339E-004	0.00000E+000	-4.05985E-001	0.00000E+000	9	...........
	18705	748.24	-4.09995E-001	-5.38856E-004	0.00000E+000	-4.09987E-001	0.00000E+000	9	...........
	18707	748.32	-4.13990E-001	-5.36853E-004	0.00000E+000	-4.13989E-001	0.00000E+000	9	...........
	18709	748.4	-4.17994E-001	-5.35236E-004	0.00000E+000	-4.17992E-001	0.00000E+000	9	...........
	18711	748.48	-4.21982E-001	-5.33390E-004	0.00000E+000	-4.21994E-001	0.00000E+000	9	...........
	18713	748.56	-4.25995E-001	-5.32566E-004	0.00000E+000	-4.25996E-001	0.00000E+000	9	...........
	18715	748.64	-4.30007E-001	-5.31980E-004	0.00000E+000	-4.29998E-001	0.00000E+000	9	...........
	18717	748.72	-4.33981E-001	-5.30498E-004	0.00000E+000	-4.34000E-001	0.00000E+000	9	...........
	18719	748.8	-4.38015E-001	-5.28801E-004	0.00000E+000	-4.38002E-001	0.00000E+000	9	...........
	18721	748.88	-4.42007E-001	-5.28019E-004	0.00000E+000	-4.42004E-001	0.00000E+000	9	...........
	18723	748.96	-4.46013E-001	-5.28243E-004	0.00000E+000	-4.46006E-001	0.00000E+000	9	...........
	18725	749.04	-4.50030E-001	-5.28429E-004	0.00000E+000	-4.50008E-001	0.00000E+000	9	...........
	18727	749.12	-4.54019E-001	-5.27622E-004	0.00000E+000	-4.54010E-001	0.00000E+000	9	...........
	18729	749.2	-4.58018E-001	-5.26958E-004	0.00000E+000	-4.58012E-001	0.00000E+000	9	...........
	18731	749.28	-4.62044E-001	-5.27163E-004	0.00000E+000	-4.62014E-001	0.00000E+000	9	...........
	18733	749.36	-4.66029E-001	-5.28405E-004	0.00000E+000	-4.66016E-001	0.00000E+000	9	...........
	18735	749.44	-4.70031E-001	-5.32721E-004	0.00000E+000	-4.70018E-001	0.00000E+000	9	...........
	18737	749.52	-4.74039E-001	-5.33916E-004	0.00000E+000	-4.74020E-001	0.00000E+000	9	...........
	18739	749.6	-4.77994E-001	-5.32752E-004	0.00000E+000	-4.77972E-001	0.00000E+000	9	...........
	18741	749.68	-4.81989E-001	-5.35038E-004	0.00000E+000	-4.81974E-001	0.00000E+000	9	...........
	18743	749.76	-4.85983E-001	-5.35530E-004	0.00000E+000	-4.85976E-001	0.00000E+000	9	...........
	18745	749.84	-4.90009E-001	-5.40223E-004	0.00000E+000	-4.89978E-001	0.00000E+000	9	...........
	18747	749.92	-4.94001E-001	-5.37482E-004	0.00000E+000	-4.93980E-001	0.00000E+000	9	...........
	18749	750	-4.97997E-001	-5.38338E-004	0.00000E+000	-4.97982E-001	0.00000E+000	9	...........
	18751	750.08	-5.02011E-001	-5.40367E-004	0.00000E+000	-5.01985E-001	0.00000E+000	9	...........
	18753	750.16	-5.06000E-001	-5.43450E-004	0.00000E+000	-5.05987E-001	0.00000E+000	9	...........
	18755	750.24	-5.10003E-001	-5.46628E-004	0.00000E+000	-5.09989E-001	0.00000E+000	9	...........
	18757	750.32	-5.14036E-001	-5.48468E-004	0.00000E+000	-5.13991E-001	0.00000E+000	9	...........
	18759	750.4	-5.17998E-001	-5.50843E-004	0.00000E+000	-5.17993E-001	0.00000E+000	9	...........
	18761	750.48	-5.21994E-001	-5.54216E-004	0.00000E+000	-5.21995E-001	0.00000E+000	9	...........
	18763	750.56	-5.26010E-001	-5.59028E-004	0.00000E+000	-5.25997E-001	0.00000E+000	9	...........
	18765	750.64	-5.30012E-001	-5.63903E-004	0.00000E+000	-5.29999E-001	0.00000E+000	9	...........
	18767	750.72	-5.34017E-001	-5.67139E-004	0.00000E+000	-5.34001E-001	0.00000E+000	9	...........
	18769	750.8	-5.38008E-001	-5.70091E-004	0.00000E+000	-5.38003E-001	0.00000E+000	9	...........
	18771	750.88	-5.42010E-001	-5.73581E-004	0.00000E+000	-5.42005E-001	0.00000E+000	9	...........
	18773	750.96	-5.46020E-001	-5.79788E-004	0.00000E+000	-5.46007E-001	0.00000E+000	9	...........
	18775	751.04	-5.50007E-001	-5.83919E-004	0.00000E+000	-5.50009E-001	0.00000E+000	9	...........
	18777	751.12	-5.54019E-001	-5.86778E-004	0.00000E+000	-5.54011E-001	0.00000E+000	9	...........
	18779	751.2	-5.58014E-001	-5.89790E-004	0.00000E+000	-5.58013E-001	0.00000E+000	9	...........
	18781	751.28	-5.62012E-001	-5.93652E-004	0.00000E+000	-5.62015E-001	0.00000E+000	9	...........
	18783	751.36	-5.66043E-001	-5.98422E-004	0.00000E+000	-5.66017E-001	0.00000E+000	9	...........
	18785	751.44	-5.70029E-001	-6.01874E-004	0.00000E+000	-5.70019E-001	0.00000E+000	9	...........
	18787	751.52	-5.74028E-001	-6.04710E-004	0.00000E+000	-5.74021E-001	0.00000E+000	9	...........
	18789	751.6	-5.77990E-001	-6.06228E-004	0.00000E+000	-5.77973E-001	0.00000E+000	9	...........
	18791	751.68	-5.81983E-001	-6.08786E-004	0.00000E+000	-5.81975E-001	0.00000E+000	9	...........
	18793	751.76	-5.85987E-001	-6.12750E-004	0.00000E+000	-5.85978E-001	0.00000E+000	9	...........
	18795	751.84	-5.90008E-001	-6.15235E-004	0.00000E+000	-5.89980E-001	0.00000E+000	9	...........
	18797	751.92	-5.93988E-001	-6.16360E-004	0.00000E+000	-5.93982E-001	0.00000E+000	9	...........
	18799	752	-5.97996E-001	-6.16945E-004	0.00000E+000	-5.97984E-001	0.00000E+000	9	...........
	18801	752.08	-6.01993E-001	-6.18458E-004	0.00000E+000	-6.01986E-001	0.00000E+000	9	...........
	18803	752.16	-6.06005E-001	-6.20510E-004	0.00000E+000	-6.05988E-001	0.00000E+000	9	...........
	18805	752.24	-6.10011E-001	-6.21511E-004	0.00000E+000	-6.09990E-001	0.00000E+000	9	...........
	18807	752.32	-6.13996E-001	-6.22030E-004	0.00000E+000	-6.13992E-001	0.00000E+000	9	...........
	18809	752.4	-6.18018E-001	-6.18883E-004	0.00000E+000	-6.17994E-001	0.00000E+000	9	...........
	18811	752.48	-6.22016E-001	-6.18328E-004	0.00000E+000	-6.21996E-001	0.00000E+000	9	...........
	18813	752.56	-6.26001E-001	-6.17644E-004	0.00000E+000	-6.25998E-001	0.00000E+000	9	...........
	18815	752.64	-6.30027E-001	-6.16787E-004	0.00000E+000	-6.30000E-001	0.00000E+000	9	...........
	18817	752.72	-6.34012E-001	-6.13895E-004	0.00000E+000	-6.34002E-001	0.00000E+000	9	...........
	18819	752.8	-6.38003E-001	-6.09197E-004	0.00000E+000	-6.38004E-001	0.00000E+000	9	...........
	18821	752.88	-6.42023E-001	-6.05563E-004	0.00000E+000	-6.42006E-001	0.00000E+000	9	...........
	18823	752.96	-6.46028E-001	-6.02905E-004	0.00000E+000	-6.46008E-001	0.00000E+000	9	...........
	18825	753.04	-6.50032E-001	-5.98804E-004	0.00000E+000	-6.50010E-001	0.00000E+000	9	...........
	18827	753.12	-6.54037E-001	-5.92253E-004	0.00000E+000	-6.54012E-001	0.00000E+000	9	...........
	18829	753.2	-6.58044E-001	-5.84674E-004	0.00000E+000	-6.58014E-001	0.00000E+000	9	...........
	18831	753.28	-6.62027E-001	-5.76992E-004	0.00000E+000	-6.62016E-001	0.00000E+000	9	...........
	18833	753.36	-6.66033E-001	-5.72237E-004	0.00000E+000	-6.66019E-001	0.00000E+000	9	...........
	18835	753.44	-6.70071E-001	-5.66678E-004	0.00000E+000	-6.70021E-001	0.00000E+000	9	...........
	18837	753.52	-6.74008E-001	-5.58605E-004	0.00000E+000	-6.73973E-001	0.00000E+000	9	...........
	18839	753.6	-6.78001E-001	-5.52771E-004	0.00000E+000	-6.77975E-001	0.00000E+000	9	...........
	18841	753.68	-6.81998E-001	-5.48372E-004	0.00000E+000	-6.81977E-001	0.00000E+000	9	...........
	18843	753.76	-6.86007E-001	-5.45084E-004	0.00000E+000	-6.85979E-001	0.00000E+000	9	...........
	18845	753.84	-6.89997E-001	-5.42093E-004	0.00000E+000	-6.89981E-001	0.00000E+000	9	...........
	18847	753.92	-6.94028E-001	-5.38777E-004	0.00000E+000	-6.93983E-001	0.00000E+000	9	...........
	18849	754	-6.98015E-001	-5.33623E-004	0.00000E+000	-6.97985E-001	0.00000E+000	9	...........
	18851	754.08	-7.02018E-001	-5.30689E-004	0.00000E+000	-7.01987E-001	0.00000E+000	9	...........
	18853	754.16	-7.06021E-001	-5.28614E-004	0.00000E+000	-7.05989E-001	0.00000E+000	9	...........
	18855	754.24	-7.10023E-001	-5.26120E-004	0.00000E+000	-7.09991E-001	0.00000E+000	9	...........
	18857	754.32	-7.14020E-001	-5.23763E-004	0.00000E+000	-7.13993E-001	0.00000E+000	9	...........
	18859	754.4	-7.18025E-001	-5.20006E-004	0.00000E+000	-7.17995E-001	0.00000E+000	9	...........
	18861	754.48	-7.22027E-001	-5.19840E-004	0.00000E+000	-7.21997E-001	0.00000E+000	9	...........
	18863	754.56	-7.26031E-001	-5.20372E-004	0.00000E+000	-7.25999E-001	0.00000E+000	9	...........
	18865	754.64	-7.30023E-001	-5.22841E-004	0.00000E+000	-7.30001E-001	0.00000E+000	9	...........
	18867	754.72	-7.34035E-001	-5.25641E-004	0.00000E+000	-7.34003E-001	0.00000E+000	9	...........
	18869	754.8	-7.38035E-001	-5.30690E-004	0.00000E+000	-7.38005E-001	0.00000E+000	9	...........
	18871	754.88	-7.42024E-001	-5.39928E-004	0.00000E+000	-7.42007E-001	0.00000E+000	9	...........
	18873	754.96	-7.46038E-001	-5.52969E-004	0.00000E+000	-7.46009E-001	0.00000E+000	9	...........
	18875	755.04	-7.50050E-001	-5.70690E-004	0.00000E+000	-7.50012E-001	0.00000E+000	9	...........
	18877	755.12	-7.54043E-001	-5.91961E-004	0.00000E+000	-7.54014E-001	0.00000E+000	9	...........
	18879	755.2	-7.58049E-001	-6.17688E-004	0.00000E+000	-7.58016E-001	0.00000E+000	9	...........
	18881	755.28	-7.62046E-001	-6.50893E-004	0.00000E+000	-7.62018E-001	0.00000E+000	9	...........
	18883	755.36	-7.66042E-001	-6.91296E-004	0.00000E+000	-7.66020E-001	0.00000E+000	9	...........
	18885	755.44	-7.70030E-001	-7.37274E-004	0.00000E+000	-7.69972E-001	0.00000E+000	9	...........
	18887	755.52	-7.74015E-001	-7.90571E-004	0.00000E+000	-7.73974E-001	0.00000E+000	9	...........
	18889	755.6	-7.78010E-001	-8.49680E-004	0.00000E+000	-7.77976E-001	0.00000E+000	9	...........
	18891	755.68	-7.82011E-001	-9.16512E-004	0.00000E+000	-7.81978E-001	0.00000E+000	9	...........
	18893	755.76	-7.86024E-001	-9.92407E-004	0.00000E+000	-7.85980E-001	0.00000E+000	10	...........
	18895	755.84	-7.90024E-001	-1.07482E-003	0.00000E+000	-7.89982E-001	0.00000E+000	10	...........
	18897	755.92	-7.94004E-001	-1.16593E-003	0.00000E+000	-7.93984E-001	0.00000E+000	10	...........
	18899	756	-7.98026E-001	-1.26368E-003	0.00000E+000	-7.97986E-001	0.00000E+000	10	...........
	18900	756.04	-8.00031E-001	-1.31753E-003	0.00000E+000	-7.99987E-001	0.00000E+000	10	...........