File: CV data/012615_KM_o2 sat_760mmhg.txt
EXPLAIN
TAG	CV
TITLE	LABEL	Cyclic Voltammetry	Test &Identifier
DATE	LABEL	1/26/2015	Date
TIME	LABEL	15:32:04	Time
NOTES	NOTES	1	&Notes...

PSTAT	PSTAT	IFC1000-06010	Potentiostat
VINIT	POTEN	1.00000E+000	F	Initial &E (V)
VLIMIT1	POTEN	-8.00000E-001	F	Scan Limit &1 (V)
VLIMIT2	POTEN	1.00000E+000	F	Scan Limit &2 (V)
VFINAL	POTEN	-8.00000E-001	F	Final &E (V)
SCANRATE	QUANT	4.99999E+001	&Scan Rate (mV/s)
STEPSIZE	QUANT	2.00000E+000	St&ep Size (mV)
CYCLES	IQUANT	10	C&ycles (#)
IMODE	SELECTOR	0	I/E Range &Mode
IRANGE	QUANT	1.00000E+001	&Max Current (mA)
AREA	QUANT	1.00000E+000	Electrode &Area (cm^2)
ELECTRODETYPE	SELECTOR	0	Electrode Type
STRIPPING	TOGGLE	F	Used for Stripping
POLARITY	TOGGLE	F	Signal Polarity
CONDIT	TWOPARAM	F	1.50000E+001	0.00000E+000	Conditionin&g	Time(s)	E(V)
DELAY	TWOPARAM	T	2.00000E+001	0.00000E+000	Init. De&lay	Time(s)	Stab.(mV/s)
EQDELAY	QUANT	5.00000E+000	Equil. &Time (s)
IRCOMP	SELECTOR	1	IRCom&p
PFCOR	QUANT	5.00000E+001	PF Corr. (ohm)
SAMPLINGMODE	SELECTOR	1	Sampling &Mode
OCVCURVE	TABLE	77
	Pt	T	Vf	Vm	Ach	Over
	#	s	V vs. Ref.	V	V	bits
	0	0.258333	3.01495E-001	3.01495E-001	0.00000E+000	...........
	1	0.516667	3.01497E-001	3.01571E-001	0.00000E+000	...........
	2	0.775	3.01506E-001	3.01645E-001	0.00000E+000	...........
	3	1.03333	3.01531E-001	3.01704E-001	0.00000E+000	...........
	4	1.29167	3.01576E-001	3.01788E-001	0.00000E+000	...........
	5	1.55	3.01636E-001	3.01863E-001	0.00000E+000	...........
	6	1.80833	3.01706E-001	3.01939E-001	0.00000E+000	...........
	7	2.06667	3.01780E-001	3.02003E-001	0.00000E+000	...........
	8	2.325	3.01855E-001	3.02086E-001	0.00000E+000	...........
	9	2.58333	3.01929E-001	3.02148E-001	0.00000E+000	...........
	10	2.84167	3.02002E-001	3.02237E-001	0.00000E+000	...........
	11	3.1	3.02076E-001	3.02302E-001	0.00000E+000	...........
	12	3.35833	3.02150E-001	3.02370E-001	0.00000E+000	...........
	13	3.61667	3.02223E-001	3.02446E-001	0.00000E+000	...........
	14	3.875	3.02296E-001	3.02510E-001	0.00000E+000	...........
	15	4.13333	3.02367E-001	3.02588E-001	0.00000E+000	...........
	16	4.39167	3.02437E-001	3.02650E-001	0.00000E+000	...........
	17	4.65	3.02508E-001	3.02731E-001	0.00000E+000	...........
	18	4.90833	3.02579E-001	3.02794E-001	0.00000E+000	...........
	19	5.16667	3.02650E-001	3.02876E-001	0.00000E+000	...........
	20	5.425	3.02722E-001	3.02950E-001	0.00000E+000	...........
	21	5.68333	3.02794E-001	3.03008E-001	0.00000E+000	...........
	22	5.94167	3.02867E-001	3.03093E-001	0.00000E+000	...........
	23	6.2	3.02939E-001	3.03149E-001	0.00000E+000	...........
	24	6.45833	3.03009E-001	3.03222E-001	0.00000E+000	...........
	25	6.71667	3.03079E-001	3.03273E-001	0.00000E+000	...........
	26	6.975	3.03146E-001	3.03352E-001	0.00000E+000	...........
	27	7.23333	3.03211E-001	3.03411E-001	0.00000E+000	...........
	28	7.49167	3.03276E-001	3.03469E-001	0.00000E+000	...........
	29	7.75	3.03341E-001	3.03545E-001	0.00000E+000	...........
	30	8.00833	3.03406E-001	3.03609E-001	0.00000E+000	...........
	31	8.26667	3.03471E-001	3.03677E-001	0.00000E+000	...........
	32	8.525	3.03537E-001	3.03739E-001	0.00000E+000	...........
	33	8.78333	3.03603E-001	3.03798E-001	0.00000E+000	...........
	34	9.04167	3.03669E-001	3.03859E-001	0.00000E+000	...........
	35	9.3	3.03732E-001	3.03928E-001	0.00000E+000	...........
	36	9.5583	3.03795E-001	3.03980E-001	0.00000E+000	...........
	37	9.8167	3.03856E-001	3.04045E-001	0.00000E+000	...........
	38	10.075	3.03918E-001	3.04119E-001	0.00000E+000	...........
	39	10.3333	3.03980E-001	3.04172E-001	0.00000E+000	...........
	40	10.5917	3.04043E-001	3.04231E-001	0.00000E+000	...........
	41	10.85	3.04106E-001	3.04293E-001	0.00000E+000	...........
	42	11.1083	3.04168E-001	3.04353E-001	0.00000E+000	...........
	43	11.3667	3.04228E-001	3.04408E-001	0.00000E+000	...........
	44	11.625	3.04288E-001	3.04474E-001	0.00000E+000	...........
	45	11.8833	3.04347E-001	3.04527E-001	0.00000E+000	...........
	46	12.1417	3.04406E-001	3.04576E-001	0.00000E+000	...........
	47	12.4	3.04464E-001	3.04629E-001	0.00000E+000	...........
	48	12.6583	3.04520E-001	3.04696E-001	0.00000E+000	...........
	49	12.9167	3.04575E-001	3.04744E-001	0.00000E+000	...........
	50	13.175	3.04630E-001	3.04807E-001	0.00000E+000	...........
	51	13.4333	3.04686E-001	3.04855E-001	0.00000E+000	...........
	52	13.6917	3.04742E-001	3.04901E-001	0.00000E+000	...........
	53	13.95	3.04797E-001	3.04963E-001	0.00000E+000	...........
	54	14.2083	3.04850E-001	3.05017E-001	0.00000E+000	...........
	55	14.4667	3.04903E-001	3.05065E-001	0.00000E+000	...........
	56	14.725	3.04956E-001	3.05113E-001	0.00000E+000	...........
	57	14.9833	3.05009E-001	3.05171E-001	0.00000E+000	...........
	58	15.2417	3.05061E-001	3.05234E-001	0.00000E+000	...........
	59	15.5	3.05114E-001	3.05289E-001	0.00000E+000	...........
	60	15.7583	3.05170E-001	3.05346E-001	0.00000E+000	...........
	61	16.0167	3.05227E-001	3.05412E-001	0.00000E+000	...........
	62	16.275	3.05285E-001	3.05475E-001	0.00000E+000	...........
	63	16.5333	3.05345E-001	3.05533E-001	0.00000E+000	...........
	64	16.7917	3.05407E-001	3.05601E-001	0.00000E+000	...........
	65	17.05	3.05469E-001	3.05669E-001	0.00000E+000	...........
	66	17.3083	3.05532E-001	3.05731E-001	0.00000E+000	...........
	67	17.5667	3.05596E-001	3.05797E-001	0.00000E+000	...........
	68	17.825	3.05662E-001	3.05867E-001	0.00000E+000	...........
	69	18.0833	3.05727E-001	3.05930E-001	0.00000E+000	...........
	70	18.3417	3.05793E-001	3.05973E-001	0.00000E+000	...........
	71	18.6	3.05857E-001	3.06029E-001	0.00000E+000	...........
	72	18.8583	3.05916E-001	3.06071E-001	0.00000E+000	...........
	73	19.1167	3.05971E-001	3.06129E-001	0.00000E+000	...........
	74	19.375	3.06022E-001	3.06181E-001	0.00000E+000	...........
	75	19.6333	3.06073E-001	3.06253E-001	0.00000E+000	...........
	76	19.8917	3.06127E-001	3.06300E-001	0.00000E+000	...........
EOC	QUANT	0.3061265	Open Circuit (V)
PSTATMODEL	IQUANT	48	Pstat Model
PSTATSECTION	LABEL	IFC1000-06010	Pstat Section
PSTATSERIALNO	LABEL	06010	Pstat Serial Number
CTRLMODE	IQUANT	1	Control Mode
IESTAB	IQUANT	2	I/E Stability
CASPEED	IQUANT	2	Control Amp Speed
CONVENTION	IQUANT	1	Current Convention
ICHRANGE	IQUANT	2	Ich Range
ICHRANGEMODE	TOGGLE	F	Ich Auto Range
ICHOFFSETENABLE	TOGGLE	F	Ich Offset Enable
ICHOFFSET	QUANT	0	Ich Offset (V)
ICHFILTER	IQUANT	3	Ich Filter
VCHRANGE	IQUANT	2	Vch Range
VCHRANGEMODE	TOGGLE	F	Vch Auto Range
VCHOFFSETENABLE	TOGGLE	F	Vch Offset Enable
VCHOFFSET	QUANT	0	Vch Offset (V)
VCHFILTER	IQUANT	3	Vch Filter
IERANGELOWERLIMIT	IQUANT	4	I/E Range Lower Limit
IERANGEMODE	TOGGLE	T	I/E AutoRange
IERANGE	IQUANT	11	I/E Range
ACHSELECT	IQUANT	4	Ach Select
CABLEID	IQUANT	14	Cable ID
DCCALDATE	LABEL	9/18/2014	DC Calibration Date
ACCALDATE	LABEL	9/18/2014	AC Calibration Date
FRAMEWORKVERSION	QUANT	6.25	Framework Version
INSTRUMENTVERSION	LABEL	3.26	Instrument Version
CURVE1	TABLE
	Pt	T	Vf	Im	Vu	Sig	Ach	IERange	Over
	#	s	V vs. Ref.	A	V	V	V	#	bits
	0	0.04	1.00009E+000	7.84603E-005	0.00000E+000	9.99985E-001	0.00000E+000	11	...........
	4	0.2	9.92076E-001	6.26864E-005	0.00000E+000	9.91981E-001	0.00000E+000	8	...........
	8	0.36	9.84067E-001	5.27490E-005	0.00000E+000	9.83977E-001	0.00000E+000	8	...........
	12	0.52	9.76121E-001	4.45625E-005	0.00000E+000	9.76022E-001	0.00000E+000	8	...........
	16	0.68	9.68101E-001	3.82326E-005	0.00000E+000	9.68018E-001	0.00000E+000	8	...........
	20	0.84	9.60090E-001	3.24621E-005	0.00000E+000	9.60014E-001	0.00000E+000	8	...........
	24	1	9.52104E-001	2.79751E-005	0.00000E+000	9.52010E-001	0.00000E+000	8	...........
	28	1.16	9.44087E-001	2.41936E-005	0.00000E+000	9.44006E-001	0.00000E+000	8	...........
	32	1.32	9.36085E-001	2.07459E-005	0.00000E+000	9.36002E-001	0.00000E+000	8	...........
	36	1.48	9.28072E-001	1.81820E-005	0.00000E+000	9.27998E-001	0.00000E+000	8	...........
	40	1.64	9.20047E-001	1.54991E-005	0.00000E+000	9.19994E-001	0.00000E+000	8	...........
	44	1.8	9.12082E-001	1.34959E-005	0.00000E+000	9.11990E-001	0.00000E+000	8	...........
	48	1.96	9.04077E-001	1.16594E-005	0.00000E+000	9.03986E-001	0.00000E+000	8	...........
	52	2.12	8.96055E-001	9.89849E-006	0.00000E+000	8.95981E-001	0.00000E+000	8	...........
	56	2.28	8.88076E-001	8.71750E-006	0.00000E+000	8.87977E-001	0.00000E+000	8	...........
	60	2.44	8.80089E-001	5.44433E-006	0.00000E+000	8.80023E-001	0.00000E+000	7	.....h.....
	64	2.6	8.72101E-001	4.85167E-006	0.00000E+000	8.72019E-001	0.00000E+000	7	.....h.....
	68	2.76	8.64065E-001	3.40489E-006	0.00000E+000	8.64015E-001	0.00000E+000	7	.....h.....
	72	2.92	8.56084E-001	2.49634E-006	0.00000E+000	8.56011E-001	0.00000E+000	7	.....h.....
	76	3.08	8.48068E-001	1.92160E-006	0.00000E+000	8.48007E-001	0.00000E+000	7	...........
	80	3.24	8.40064E-001	6.50169E-007	0.00000E+000	8.40003E-001	0.00000E+000	7	...........
	84	3.4	8.32069E-001	3.97720E-007	0.00000E+000	8.31999E-001	0.00000E+000	7	...........
	88	3.56	8.24051E-001	-6.04792E-007	0.00000E+000	8.23995E-001	0.00000E+000	7	...........
	92	3.72	8.16052E-001	-1.28356E-006	0.00000E+000	8.15991E-001	0.00000E+000	7	...........
	96	3.88	8.08055E-001	-1.65709E-006	0.00000E+000	8.07986E-001	0.00000E+000	7	...........
	100	4.04	8.00055E-001	-2.72373E-006	0.00000E+000	7.99982E-001	0.00000E+000	7	...........
	104	4.2	7.92043E-001	-2.81493E-006	0.00000E+000	7.91978E-001	0.00000E+000	7	...........
	108	4.36	7.84091E-001	-3.70075E-006	0.00000E+000	7.84024E-001	0.00000E+000	7	...........
	112	4.52	7.76095E-001	-4.13570E-006	0.00000E+000	7.76020E-001	0.00000E+000	7	...........
	116	4.68	7.68047E-001	-4.41505E-006	0.00000E+000	7.68016E-001	0.00000E+000	7	...........
	120	4.84	7.60075E-001	-5.40158E-006	0.00000E+000	7.60012E-001	0.00000E+000	7	...........
	124	5	7.52075E-001	-5.44434E-006	0.00000E+000	7.52008E-001	0.00000E+000	7	...........
	128	5.16	7.44078E-001	-6.28133E-006	0.00000E+000	7.44004E-001	0.00000E+000	7	...........
	132	5.32	7.36050E-001	-6.59133E-006	0.00000E+000	7.36000E-001	0.00000E+000	7	...........
	136	5.48	7.28039E-001	-6.91318E-006	0.00000E+000	7.27995E-001	0.00000E+000	7	...........
	140	5.64	7.20050E-001	-7.82666E-006	0.00000E+000	7.19991E-001	0.00000E+000	7	...........
	144	5.8	7.12070E-001	-7.71029E-006	0.00000E+000	7.11987E-001	0.00000E+000	7	...........
	148	5.96	7.04054E-001	-8.63365E-006	0.00000E+000	7.03983E-001	0.00000E+000	7	...........
	152	6.12	6.96071E-001	-8.97310E-006	0.00000E+000	6.95979E-001	0.00000E+000	7	...........
	156	6.28	6.88098E-001	-7.96173E-006	0.00000E+000	6.88025E-001	0.00000E+000	8	...........
	160	6.44	6.80114E-001	-8.77960E-006	0.00000E+000	6.80021E-001	0.00000E+000	8	...........
	164	6.6	6.72100E-001	-9.09987E-006	0.00000E+000	6.72017E-001	0.00000E+000	8	...........
	168	6.76	6.64078E-001	-9.65205E-006	0.00000E+000	6.64013E-001	0.00000E+000	8	...........
	172	6.92	6.56065E-001	-1.02674E-005	0.00000E+000	6.56009E-001	0.00000E+000	8	...........
	176	7.08	6.48085E-001	-1.05815E-005	0.00000E+000	6.48004E-001	0.00000E+000	8	...........
	180	7.24	6.40052E-001	-1.12689E-005	0.00000E+000	6.40000E-001	0.00000E+000	8	...........
	184	7.4	6.32074E-001	-1.16478E-005	0.00000E+000	6.31996E-001	0.00000E+000	8	...........
	188	7.56	6.24050E-001	-1.22494E-005	0.00000E+000	6.23992E-001	0.00000E+000	8	...........
	192	7.72	6.16059E-001	-1.28775E-005	0.00000E+000	6.15988E-001	0.00000E+000	8	...........
	196	7.88	6.08051E-001	-1.32966E-005	0.00000E+000	6.07984E-001	0.00000E+000	8	...........
	200	8.04	6.00053E-001	-1.42193E-005	0.00000E+000	5.99980E-001	0.00000E+000	8	...........
	204	8.2	5.92091E-001	-1.44763E-005	0.00000E+000	5.92026E-001	0.00000E+000	8	...........
	208	8.36	5.84079E-001	-1.52291E-005	0.00000E+000	5.84022E-001	0.00000E+000	8	...........
	212	8.52	5.76067E-001	-1.59008E-005	0.00000E+000	5.76018E-001	0.00000E+000	8	...........
	216	8.68	5.68074E-001	-1.63957E-005	0.00000E+000	5.68013E-001	0.00000E+000	8	...........
	220	8.84	5.60050E-001	-1.73140E-005	0.00000E+000	5.60009E-001	0.00000E+000	8	...........
	224	9	5.52053E-001	-1.77930E-005	0.00000E+000	5.52005E-001	0.00000E+000	8	...........
	228	9.16	5.44045E-001	-1.85210E-005	0.00000E+000	5.44001E-001	0.00000E+000	8	...........
	232	9.32	5.36033E-001	-1.95201E-005	0.00000E+000	5.35997E-001	0.00000E+000	8	...........
	236	9.48	5.28036E-001	-1.99504E-005	0.00000E+000	5.27993E-001	0.00000E+000	8	...........
	240	9.64	5.20029E-001	-2.10471E-005	0.00000E+000	5.19989E-001	0.00000E+000	8	...........
	244	9.8	5.12001E-001	-2.17348E-005	0.00000E+000	5.11985E-001	0.00000E+000	8	...........
	248	9.96	5.04031E-001	-2.25750E-005	0.00000E+000	5.03981E-001	0.00000E+000	8	...........
	252	10.12	4.96015E-001	-2.36055E-005	0.00000E+000	4.95977E-001	0.00000E+000	8	...........
	256	10.28	4.88063E-001	-2.42203E-005	0.00000E+000	4.88023E-001	0.00000E+000	8	...........
	260	10.44	4.80049E-001	-2.54912E-005	0.00000E+000	4.80018E-001	0.00000E+000	8	...........
	264	10.6	4.72052E-001	-2.63351E-005	0.00000E+000	4.72014E-001	0.00000E+000	8	...........
	268	10.76	4.64062E-001	-2.73502E-005	0.00000E+000	4.64010E-001	0.00000E+000	8	...........
	272	10.92	4.56038E-001	-2.87159E-005	0.00000E+000	4.56006E-001	0.00000E+000	8	...........
	276	11.08	4.48044E-001	-2.96138E-005	0.00000E+000	4.48002E-001	0.00000E+000	8	...........
	280	11.24	4.40026E-001	-3.10928E-005	0.00000E+000	4.39998E-001	0.00000E+000	8	...........
	284	11.4	4.32019E-001	-3.21725E-005	0.00000E+000	4.31994E-001	0.00000E+000	8	...........
	288	11.56	4.24031E-001	-3.35088E-005	0.00000E+000	4.23990E-001	0.00000E+000	8	...........
	292	11.72	4.16003E-001	-3.51335E-005	0.00000E+000	4.15986E-001	0.00000E+000	8	...........
	296	11.88	4.08008E-001	-3.63064E-005	0.00000E+000	4.07982E-001	0.00000E+000	8	...........
	300	12.04	4.00014E-001	-3.81458E-005	0.00000E+000	3.99977E-001	0.00000E+000	8	...........
	304	12.2	3.92054E-001	-3.94528E-005	0.00000E+000	3.92023E-001	0.00000E+000	8	...........
	308	12.36	3.84039E-001	-4.12970E-005	0.00000E+000	3.84019E-001	0.00000E+000	8	...........
	312	12.52	3.76042E-001	-4.32967E-005	0.00000E+000	3.76015E-001	0.00000E+000	8	...........
	316	12.68	3.68033E-001	-4.50269E-005	0.00000E+000	3.68011E-001	0.00000E+000	8	...........
	320	12.84	3.60036E-001	-4.73580E-005	0.00000E+000	3.60007E-001	0.00000E+000	8	...........
	324	13	3.52018E-001	-4.93998E-005	0.00000E+000	3.52003E-001	0.00000E+000	8	...........
	328	13.16	3.44007E-001	-5.18453E-005	0.00000E+000	3.43999E-001	0.00000E+000	8	...........
	332	13.32	3.36020E-001	-5.43762E-005	0.00000E+000	3.35995E-001	0.00000E+000	8	...........
	336	13.48	3.28003E-001	-5.68920E-005	0.00000E+000	3.27991E-001	0.00000E+000	8	...........
	340	13.64	3.19982E-001	-6.00350E-005	0.00000E+000	3.19986E-001	0.00000E+000	8	...........
	344	13.8	3.11988E-001	-6.29783E-005	0.00000E+000	3.11982E-001	0.00000E+000	8	...........
	348	13.96	3.03989E-001	-6.63425E-005	0.00000E+000	3.03978E-001	0.00000E+000	8	...........
	352	14.12	2.96050E-001	-7.01241E-005	0.00000E+000	2.96024E-001	0.00000E+000	8	...........
	356	14.28	2.88033E-001	-7.38590E-005	0.00000E+000	2.88020E-001	0.00000E+000	8	...........
	360	14.44	2.80027E-001	-7.85156E-005	0.00000E+000	2.80016E-001	0.00000E+000	8	...........
	364	14.6	2.72037E-001	-8.31834E-005	0.00000E+000	2.72012E-001	0.00000E+000	8	...........
	368	14.76	2.64031E-001	-8.85521E-005	0.00000E+000	2.64008E-001	0.00000E+000	8	...........
	372	14.92	2.56006E-001	-9.48874E-005	0.00000E+000	2.56004E-001	0.00000E+000	9	...........
	376	15.08	2.48010E-001	-1.01176E-004	0.00000E+000	2.48000E-001	0.00000E+000	9	...........
	380	15.24	2.39985E-001	-1.08680E-004	0.00000E+000	2.39995E-001	0.00000E+000	9	...........
	384	15.4	2.32007E-001	-1.16752E-004	0.00000E+000	2.31991E-001	0.00000E+000	9	...........
	388	15.56	2.23979E-001	-1.26053E-004	0.00000E+000	2.23987E-001	0.00000E+000	9	...........
	392	15.72	2.15981E-001	-1.36751E-004	0.00000E+000	2.15983E-001	0.00000E+000	9	...........
	396	15.88	2.07989E-001	-1.48486E-004	0.00000E+000	2.07979E-001	0.00000E+000	9	...........
	400	16.04	2.00030E-001	-1.62314E-004	0.00000E+000	2.00025E-001	0.00000E+000	9	...........
	404	16.2	1.92016E-001	-1.78200E-004	0.00000E+000	1.92021E-001	0.00000E+000	9	...........
	408	16.36	1.84025E-001	-1.96929E-004	0.00000E+000	1.84017E-001	0.00000E+000	9	...........
	412	16.52	1.75997E-001	-2.19026E-004	0.00000E+000	1.76013E-001	0.00000E+000	9	...........
	416	16.68	1.68012E-001	-2.44711E-004	0.00000E+000	1.68009E-001	0.00000E+000	9	...........
	420	16.84	1.60004E-001	-2.75841E-004	0.00000E+000	1.60005E-001	0.00000E+000	9	...........
	424	17	1.51984E-001	-3.12442E-004	0.00000E+000	1.52000E-001	0.00000E+000	9	...........
	428	17.16	1.43985E-001	-3.56417E-004	0.00000E+000	1.43996E-001	0.00000E+000	9	...........
	432	17.32	1.35983E-001	-4.09424E-004	0.00000E+000	1.35992E-001	0.00000E+000	9	...........
	436	17.48	1.27968E-001	-4.71952E-004	0.00000E+000	1.27988E-001	0.00000E+000	9	...........
	440	17.64	1.19972E-001	-5.46500E-004	0.00000E+000	1.19984E-001	0.00000E+000	9	...........
	444	17.8	1.11956E-001	-6.32430E-004	0.00000E+000	1.11980E-001	0.00000E+000	9	...........
	448	17.96	1.04027E-001	-7.28229E-004	0.00000E+000	1.04026E-001	0.00000E+000	9	...........
	452	18.12	9.59921E-002	-8.33237E-004	0.00000E+000	9.60217E-002	0.00000E+000	9	...........
	456	18.28	8.79944E-002	-9.40670E-004	0.00000E+000	8.80176E-002	0.00000E+000	10	...........
	460	18.44	7.99904E-002	-1.04974E-003	0.00000E+000	8.00135E-002	0.00000E+000	10	...........
	464	18.6	7.19795E-002	-1.15408E-003	0.00000E+000	7.20094E-002	0.00000E+000	10	...........
	468	18.76	6.39747E-002	-1.25248E-003	0.00000E+000	6.40053E-002	0.00000E+000	10	...........
	472	18.92	5.59795E-002	-1.34227E-003	0.00000E+000	5.60012E-002	0.00000E+000	10	...........
	476	19.08	4.79757E-002	-1.42092E-003	0.00000E+000	4.79971E-002	0.00000E+000	10	...........
	480	19.24	3.99732E-002	-1.48589E-003	0.00000E+000	3.99930E-002	0.00000E+000	10	...........
	484	19.4	3.19561E-002	-1.53062E-003	0.00000E+000	3.19889E-002	0.00000E+000	10	...........
	488	19.56	2.39490E-002	-1.55419E-003	0.00000E+000	2.39848E-002	0.00000E+000	10	...........
	492	19.72	1.59656E-002	-1.55839E-003	0.00000E+000	1.59808E-002	0.00000E+000	10	...........
	496	19.88	8.00817E-003	-1.55103E-003	0.00000E+000	8.02667E-003	0.00000E+000	10	...........
	500	20.04	-2.48446E-006	-1.54800E-003	0.00000E+000	2.25753E-005	0.00000E+000	10	...........
	504	20.2	-8.01377E-003	-1.55613E-003	0.00000E+000	-7.98152E-003	0.00000E+000	10	...........
	508	20.36	-1.60232E-002	-1.58368E-003	0.00000E+000	-1.59856E-002	0.00000E+000	10	...........
	512	20.52	-2.40067E-002	-1.62973E-003	0.00000E+000	-2.39897E-002	0.00000E+000	10	...........
	516	20.68	-3.20380E-002	-1.69165E-003	0.00000E+000	-3.19938E-002	0.00000E+000	10	...........
	520	20.84	-4.00512E-002	-1.76903E-003	0.00000E+000	-3.99979E-002	0.00000E+000	10	...........
	524	21	-4.80376E-002	-1.86103E-003	0.00000E+000	-4.80020E-002	0.00000E+000	10	...........
	528	21.16	-5.60648E-002	-1.96646E-003	0.00000E+000	-5.60061E-002	0.00000E+000	10	...........
	532	21.32	-6.40733E-002	-2.08261E-003	0.00000E+000	-6.40102E-002	0.00000E+000	10	...........
	536	21.48	-7.20454E-002	-2.20643E-003	0.00000E+000	-7.20143E-002	0.00000E+000	10	...........
	540	21.64	-8.00723E-002	-2.33605E-003	0.00000E+000	-8.00184E-002	0.00000E+000	10	...........
	544	21.8	-8.80771E-002	-2.46689E-003	0.00000E+000	-8.80225E-002	0.00000E+000	10	...........
	548	21.96	-9.60313E-002	-2.59621E-003	0.00000E+000	-9.59766E-002	0.00000E+000	10	...........
	552	22.12	-1.04050E-001	-2.72264E-003	0.00000E+000	-1.03981E-001	0.00000E+000	10	...........
	556	22.28	-1.12027E-001	-2.84000E-003	0.00000E+000	-1.11985E-001	0.00000E+000	10	...........
	560	22.44	-1.20021E-001	-2.94859E-003	0.00000E+000	-1.19989E-001	0.00000E+000	10	...........
	564	22.6	-1.28040E-001	-3.04306E-003	0.00000E+000	-1.27993E-001	0.00000E+000	10	...........
	568	22.76	-1.36036E-001	-3.12377E-003	0.00000E+000	-1.35997E-001	0.00000E+000	10	...........
	572	22.92	-1.44051E-001	-3.18968E-003	0.00000E+000	-1.44001E-001	0.00000E+000	10	...........
	576	23.08	-1.52023E-001	-3.23822E-003	0.00000E+000	-1.52005E-001	0.00000E+000	10	...........
	580	23.24	-1.60044E-001	-3.27353E-003	0.00000E+000	-1.60009E-001	0.00000E+000	10	...........
	584	23.4	-1.68052E-001	-3.29324E-003	0.00000E+000	-1.68013E-001	0.00000E+000	10	...........
	588	23.56	-1.76055E-001	-3.29935E-003	0.00000E+000	-1.76018E-001	0.00000E+000	10	...........
	592	23.72	-1.84072E-001	-3.29248E-003	0.00000E+000	-1.84022E-001	0.00000E+000	10	...........
	596	23.88	-1.92005E-001	-3.27320E-003	0.00000E+000	-1.91976E-001	0.00000E+000	10	...........
	600	24.04	-2.00031E-001	-3.24512E-003	0.00000E+000	-1.99980E-001	0.00000E+000	10	...........
	604	24.2	-2.08032E-001	-3.20751E-003	0.00000E+000	-2.07984E-001	0.00000E+000	10	...........
	608	24.36	-2.16020E-001	-3.16321E-003	0.00000E+000	-2.15988E-001	0.00000E+000	10	...........
	612	24.52	-2.24024E-001	-3.11273E-003	0.00000E+000	-2.23992E-001	0.00000E+000	10	...........
	616	24.68	-2.32058E-001	-3.05834E-003	0.00000E+000	-2.31996E-001	0.00000E+000	10	...........
	620	24.84	-2.40043E-001	-3.00074E-003	0.00000E+000	-2.40000E-001	0.00000E+000	10	...........
	624	25	-2.48055E-001	-2.94161E-003	0.00000E+000	-2.48004E-001	0.00000E+000	10	...........
	628	25.16	-2.56079E-001	-2.88275E-003	0.00000E+000	-2.56009E-001	0.00000E+000	10	...........
	632	25.32	-2.64077E-001	-2.82385E-003	0.00000E+000	-2.64013E-001	0.00000E+000	10	...........
	636	25.48	-2.72066E-001	-2.76633E-003	0.00000E+000	-2.72017E-001	0.00000E+000	10	...........
	640	25.64	-2.80072E-001	-2.71080E-003	0.00000E+000	-2.80021E-001	0.00000E+000	10	...........
	644	25.8	-2.88033E-001	-2.65626E-003	0.00000E+000	-2.87975E-001	0.00000E+000	10	...........
	648	25.96	-2.96049E-001	-2.60569E-003	0.00000E+000	-2.95979E-001	0.00000E+000	10	...........
	652	26.12	-3.04043E-001	-2.55696E-003	0.00000E+000	-3.03983E-001	0.00000E+000	10	...........
	656	26.28	-3.12039E-001	-2.51004E-003	0.00000E+000	-3.11987E-001	0.00000E+000	10	...........
	660	26.44	-3.20027E-001	-2.46786E-003	0.00000E+000	-3.19991E-001	0.00000E+000	10	...........
	664	26.6	-3.28040E-001	-2.42491E-003	0.00000E+000	-3.27995E-001	0.00000E+000	10	...........
	668	26.76	-3.36055E-001	-2.38634E-003	0.00000E+000	-3.36000E-001	0.00000E+000	10	...........
	672	26.92	-3.44057E-001	-2.35240E-003	0.00000E+000	-3.44004E-001	0.00000E+000	10	...........
	676	27.08	-3.52065E-001	-2.31484E-003	0.00000E+000	-3.52008E-001	0.00000E+000	10	...........
	680	27.24	-3.60084E-001	-2.28269E-003	0.00000E+000	-3.60012E-001	0.00000E+000	10	...........
	684	27.4	-3.68079E-001	-2.25144E-003	0.00000E+000	-3.68016E-001	0.00000E+000	10	...........
	688	27.56	-3.76087E-001	-2.22152E-003	0.00000E+000	-3.76020E-001	0.00000E+000	10	...........
	692	27.72	-3.84019E-001	-2.19524E-003	0.00000E+000	-3.83974E-001	0.00000E+000	10	...........
	696	27.88	-3.92039E-001	-2.16796E-003	0.00000E+000	-3.91978E-001	0.00000E+000	10	...........
	700	28.04	-4.00031E-001	-2.14266E-003	0.00000E+000	-3.99982E-001	0.00000E+000	10	...........
	704	28.2	-4.08033E-001	-2.11905E-003	0.00000E+000	-4.07986E-001	0.00000E+000	10	...........
	708	28.36	-4.16054E-001	-2.10009E-003	0.00000E+000	-4.15990E-001	0.00000E+000	10	...........
	712	28.52	-4.24070E-001	-2.07136E-003	0.00000E+000	-4.23995E-001	0.00000E+000	10	...........
	716	28.68	-4.32056E-001	-2.05099E-003	0.00000E+000	-4.31999E-001	0.00000E+000	10	...........
	720	28.84	-4.40073E-001	-2.03092E-003	0.00000E+000	-4.40003E-001	0.00000E+000	10	...........
	724	29	-4.48058E-001	-2.01086E-003	0.00000E+000	-4.48007E-001	0.00000E+000	10	...........
	728	29.16	-4.56080E-001	-1.99316E-003	0.00000E+000	-4.56011E-001	0.00000E+000	10	...........
	732	29.32	-4.64097E-001	-1.97521E-003	0.00000E+000	-4.64015E-001	0.00000E+000	10	...........
	736	29.48	-4.72091E-001	-1.95788E-003	0.00000E+000	-4.72019E-001	0.00000E+000	10	...........
	740	29.64	-4.80051E-001	-1.94282E-003	0.00000E+000	-4.79973E-001	0.00000E+000	10	...........
	744	29.8	-4.88055E-001	-1.92685E-003	0.00000E+000	-4.87977E-001	0.00000E+000	10	...........
	748	29.96	-4.96068E-001	-1.91278E-003	0.00000E+000	-4.95981E-001	0.00000E+000	10	...........
	752	30.12	-5.04072E-001	-1.90015E-003	0.00000E+000	-5.03986E-001	0.00000E+000	10	...........
	756	30.28	-5.12068E-001	-1.88726E-003	0.00000E+000	-5.11990E-001	0.00000E+000	10	...........
	760	30.44	-5.20072E-001	-1.87618E-003	0.00000E+000	-5.19994E-001	0.00000E+000	10	...........
	764	30.6	-5.28080E-001	-1.86613E-003	0.00000E+000	-5.27998E-001	0.00000E+000	10	...........
	768	30.76	-5.36062E-001	-1.85694E-003	0.00000E+000	-5.36002E-001	0.00000E+000	10	...........
	772	30.92	-5.44073E-001	-1.84892E-003	0.00000E+000	-5.44006E-001	0.00000E+000	10	...........
	776	31.08	-5.52073E-001	-1.84266E-003	0.00000E+000	-5.52010E-001	0.00000E+000	10	...........
	780	31.24	-5.60076E-001	-1.83889E-003	0.00000E+000	-5.60014E-001	0.00000E+000	10	...........
	784	31.4	-5.68079E-001	-1.83224E-003	0.00000E+000	-5.68018E-001	0.00000E+000	10	...........
	788	31.56	-5.76037E-001	-1.83195E-003	0.00000E+000	-5.75972E-001	0.00000E+000	10	...........
	792	31.72	-5.84043E-001	-1.83069E-003	0.00000E+000	-5.83977E-001	0.00000E+000	10	...........
	796	31.88	-5.92055E-001	-1.83189E-003	0.00000E+000	-5.91981E-001	0.00000E+000	10	...........
	800	32.04	-6.00049E-001	-1.83568E-003	0.00000E+000	-5.99985E-001	0.00000E+000	10	...........
	804	32.2	-6.08055E-001	-1.83803E-003	0.00000E+000	-6.07989E-001	0.00000E+000	10	...........
	808	32.36	-6.16077E-001	-1.84337E-003	0.00000E+000	-6.15993E-001	0.00000E+000	10	...........
	812	32.52	-6.24069E-001	-1.84656E-003	0.00000E+000	-6.23997E-001	0.00000E+000	10	...........
	816	32.68	-6.32076E-001	-1.85035E-003	0.00000E+000	-6.32001E-001	0.00000E+000	10	...........
	820	32.84	-6.40067E-001	-1.85302E-003	0.00000E+000	-6.40005E-001	0.00000E+000	10	...........
	824	33	-6.48086E-001	-1.85537E-003	0.00000E+000	-6.48009E-001	0.00000E+000	10	...........
	828	33.16	-6.56097E-001	-1.85698E-003	0.00000E+000	-6.56013E-001	0.00000E+000	10	...........
	832	33.32	-6.64099E-001	-1.85538E-003	0.00000E+000	-6.64017E-001	0.00000E+000	10	...........
	836	33.48	-6.72110E-001	-1.85489E-003	0.00000E+000	-6.72022E-001	0.00000E+000	10	...........
	840	33.64	-6.80084E-001	-1.85038E-003	0.00000E+000	-6.79976E-001	0.00000E+000	10	...........
	844	33.8	-6.88055E-001	-1.84200E-003	0.00000E+000	-6.87980E-001	0.00000E+000	10	...........
	848	33.96	-6.96085E-001	-1.83378E-003	0.00000E+000	-6.95984E-001	0.00000E+000	10	...........
	852	34.12	-7.04065E-001	-1.81862E-003	0.00000E+000	-7.03988E-001	0.00000E+000	10	...........
	856	34.28	-7.12089E-001	-1.80217E-003	0.00000E+000	-7.11992E-001	0.00000E+000	10	...........
	860	34.44	-7.20101E-001	-1.78248E-003	0.00000E+000	-7.19996E-001	0.00000E+000	10	...........
	864	34.6	-7.28075E-001	-1.75948E-003	0.00000E+000	-7.28000E-001	0.00000E+000	10	...........
	868	34.76	-7.36086E-001	-1.73621E-003	0.00000E+000	-7.36004E-001	0.00000E+000	10	...........
	872	34.92	-7.44109E-001	-1.71294E-003	0.00000E+000	-7.44008E-001	0.00000E+000	10	...........
	876	35.08	-7.52097E-001	-1.69007E-003	0.00000E+000	-7.52013E-001	0.00000E+000	10	...........
	880	35.24	-7.60104E-001	-1.66941E-003	0.00000E+000	-7.60017E-001	0.00000E+000	10	...........
	884	35.4	-7.68102E-001	-1.65101E-003	0.00000E+000	-7.68021E-001	0.00000E+000	10	...........
	888	35.56	-7.76070E-001	-1.63790E-003	0.00000E+000	-7.75975E-001	0.00000E+000	10	...........
	892	35.72	-7.84079E-001	-1.63234E-003	0.00000E+000	-7.83979E-001	0.00000E+000	10	...........
	896	35.88	-7.92061E-001	-1.63776E-003	0.00000E+000	-7.91983E-001	0.00000E+000	10	...........
	900	36.04	-8.00077E-001	-1.65884E-003	0.00000E+000	-7.99987E-001	0.00000E+000	10	...........
	904	36.2	-7.92063E-001	-1.48803E-003	0.00000E+000	-7.91983E-001	0.00000E+000	10	...........
	908	36.36	-7.84081E-001	-1.44240E-003	0.00000E+000	-7.83979E-001	0.00000E+000	10	...........
	912	36.52	-7.76071E-001	-1.41735E-003	0.00000E+000	-7.75975E-001	0.00000E+000	10	...........
	916	36.68	-7.68107E-001	-1.40244E-003	0.00000E+000	-7.68021E-001	0.00000E+000	10	...........
	920	36.84	-7.60111E-001	-1.38607E-003	0.00000E+000	-7.60017E-001	0.00000E+000	10	...........
	924	37	-7.52094E-001	-1.37067E-003	0.00000E+000	-7.52013E-001	0.00000E+000	10	...........
	928	37.16	-7.44111E-001	-1.35754E-003	0.00000E+000	-7.44008E-001	0.00000E+000	10	...........
	932	37.32	-7.36091E-001	-1.34156E-003	0.00000E+000	-7.36004E-001	0.00000E+000	10	...........
	936	37.48	-7.28076E-001	-1.32644E-003	0.00000E+000	-7.28000E-001	0.00000E+000	10	...........
	940	37.64	-7.20091E-001	-1.31255E-003	0.00000E+000	-7.19996E-001	0.00000E+000	10	...........
	944	37.8	-7.12085E-001	-1.29775E-003	0.00000E+000	-7.11992E-001	0.00000E+000	10	...........
	948	37.96	-7.04056E-001	-1.28305E-003	0.00000E+000	-7.03988E-001	0.00000E+000	10	...........
	952	38.12	-6.96078E-001	-1.26705E-003	0.00000E+000	-6.95984E-001	0.00000E+000	10	...........
	956	38.28	-6.88060E-001	-1.25367E-003	0.00000E+000	-6.87980E-001	0.00000E+000	10	...........
	960	38.44	-6.80070E-001	-1.23860E-003	0.00000E+000	-6.79976E-001	0.00000E+000	10	...........
	964	38.6	-6.72104E-001	-1.22431E-003	0.00000E+000	-6.72022E-001	0.00000E+000	10	...........
	968	38.76	-6.64086E-001	-1.20904E-003	0.00000E+000	-6.64017E-001	0.00000E+000	10	...........
	972	38.92	-6.56086E-001	-1.19317E-003	0.00000E+000	-6.56013E-001	0.00000E+000	10	...........
	976	39.08	-6.48084E-001	-1.18079E-003	0.00000E+000	-6.48009E-001	0.00000E+000	10	...........
	980	39.24	-6.40055E-001	-1.16726E-003	0.00000E+000	-6.40005E-001	0.00000E+000	10	...........
	984	39.4	-6.32081E-001	-1.15720E-003	0.00000E+000	-6.32001E-001	0.00000E+000	10	...........
	988	39.56	-6.24075E-001	-1.14843E-003	0.00000E+000	-6.23997E-001	0.00000E+000	10	...........
	992	39.72	-6.16075E-001	-1.13830E-003	0.00000E+000	-6.15993E-001	0.00000E+000	10	...........
	996	39.88	-6.08057E-001	-1.13310E-003	0.00000E+000	-6.07989E-001	0.00000E+000	10	...........
	1000	40.04	-6.00046E-001	-1.12841E-003	0.00000E+000	-5.99985E-001	0.00000E+000	10	...........
	1004	40.2	-5.92054E-001	-1.12569E-003	0.00000E+000	-5.91981E-001	0.00000E+000	10	...........
	1008	40.36	-5.84048E-001	-1.12744E-003	0.00000E+000	-5.83977E-001	0.00000E+000	10	...........
	1012	40.52	-5.76036E-001	-1.12987E-003	0.00000E+000	-5.75972E-001	0.00000E+000	10	...........
	1016	40.68	-5.68080E-001	-1.13321E-003	0.00000E+000	-5.68018E-001	0.00000E+000	10	...........
	1020	40.84	-5.60075E-001	-1.13626E-003	0.00000E+000	-5.60014E-001	0.00000E+000	10	...........
	1024	41	-5.52078E-001	-1.13703E-003	0.00000E+000	-5.52010E-001	0.00000E+000	10	...........
	1028	41.16	-5.44073E-001	-1.13828E-003	0.00000E+000	-5.44006E-001	0.00000E+000	10	...........
	1032	41.32	-5.36061E-001	-1.13738E-003	0.00000E+000	-5.36002E-001	0.00000E+000	10	...........
	1036	41.48	-5.28082E-001	-1.13685E-003	0.00000E+000	-5.27998E-001	0.00000E+000	10	...........
	1040	41.64	-5.20070E-001	-1.13455E-003	0.00000E+000	-5.19994E-001	0.00000E+000	10	...........
	1044	41.8	-5.12082E-001	-1.13204E-003	0.00000E+000	-5.11990E-001	0.00000E+000	10	...........
	1048	41.96	-5.04072E-001	-1.12962E-003	0.00000E+000	-5.03986E-001	0.00000E+000	10	...........
	1052	42.12	-4.96061E-001	-1.12566E-003	0.00000E+000	-4.95981E-001	0.00000E+000	10	...........
	1056	42.28	-4.88065E-001	-1.12412E-003	0.00000E+000	-4.87977E-001	0.00000E+000	10	...........
	1060	42.44	-4.80053E-001	-1.11985E-003	0.00000E+000	-4.79973E-001	0.00000E+000	10	...........
	1064	42.6	-4.72093E-001	-1.11575E-003	0.00000E+000	-4.72019E-001	0.00000E+000	10	...........
	1068	42.76	-4.64095E-001	-1.11163E-003	0.00000E+000	-4.64015E-001	0.00000E+000	10	...........
	1072	42.92	-4.56073E-001	-1.10477E-003	0.00000E+000	-4.56011E-001	0.00000E+000	10	...........
	1076	43.08	-4.48053E-001	-1.09919E-003	0.00000E+000	-4.48007E-001	0.00000E+000	10	...........
	1080	43.24	-4.40069E-001	-1.09273E-003	0.00000E+000	-4.40003E-001	0.00000E+000	10	...........
	1084	43.4	-4.32051E-001	-1.08469E-003	0.00000E+000	-4.31999E-001	0.00000E+000	10	...........
	1088	43.56	-4.24059E-001	-1.07833E-003	0.00000E+000	-4.23995E-001	0.00000E+000	10	...........
	1092	43.72	-4.16040E-001	-1.07035E-003	0.00000E+000	-4.15990E-001	0.00000E+000	10	...........
	1096	43.88	-4.08038E-001	-1.06285E-003	0.00000E+000	-4.07986E-001	0.00000E+000	10	...........
	1100	44.04	-4.00048E-001	-1.05558E-003	0.00000E+000	-3.99982E-001	0.00000E+000	10	...........
	1104	44.2	-3.92037E-001	-1.04684E-003	0.00000E+000	-3.91978E-001	0.00000E+000	10	...........
	1108	44.36	-3.84015E-001	-1.03899E-003	0.00000E+000	-3.83974E-001	0.00000E+000	10	...........
	1112	44.52	-3.76092E-001	-1.03089E-003	0.00000E+000	-3.76020E-001	0.00000E+000	10	...........
	1116	44.68	-3.68083E-001	-1.02230E-003	0.00000E+000	-3.68016E-001	0.00000E+000	10	...........
	1120	44.84	-3.60095E-001	-1.01337E-003	0.00000E+000	-3.60012E-001	0.00000E+000	10	...........
	1124	45	-3.52068E-001	-1.00461E-003	0.00000E+000	-3.52008E-001	0.00000E+000	10	...........
	1128	45.16	-3.44056E-001	-9.95669E-004	0.00000E+000	-3.44004E-001	0.00000E+000	10	...........
	1132	45.32	-3.36054E-001	-9.85552E-004	0.00000E+000	-3.36000E-001	0.00000E+000	10	...........
	1136	45.48	-3.28045E-001	-9.76862E-004	0.00000E+000	-3.27995E-001	0.00000E+000	10	...........
	1140	45.64	-3.20030E-001	-9.66207E-004	0.00000E+000	-3.19991E-001	0.00000E+000	10	...........
	1144	45.8	-3.12036E-001	-9.55808E-004	0.00000E+000	-3.11987E-001	0.00000E+000	10	...........
	1148	45.96	-3.04040E-001	-9.46118E-004	0.00000E+000	-3.03983E-001	0.00000E+000	10	...........
	1152	46.12	-2.96046E-001	-9.34267E-004	0.00000E+000	-2.95979E-001	0.00000E+000	10	...........
	1156	46.28	-2.88044E-001	-9.23278E-004	0.00000E+000	-2.87975E-001	0.00000E+000	10	...........
	1160	46.44	-2.80082E-001	-9.12048E-004	0.00000E+000	-2.80021E-001	0.00000E+000	10	...........
	1164	46.6	-2.72070E-001	-8.98942E-004	0.00000E+000	-2.72017E-001	0.00000E+000	10	...........
	1168	46.76	-2.64082E-001	-8.86576E-004	0.00000E+000	-2.64013E-001	0.00000E+000	10	...........
	1172	46.92	-2.56074E-001	-8.72940E-004	0.00000E+000	-2.56009E-001	0.00000E+000	10	...........
	1176	47.08	-2.48059E-001	-8.58828E-004	0.00000E+000	-2.48004E-001	0.00000E+000	10	...........
	1180	47.24	-2.40047E-001	-8.43972E-004	0.00000E+000	-2.40000E-001	0.00000E+000	10	...........
	1184	47.4	-2.32069E-001	-8.28392E-004	0.00000E+000	-2.31996E-001	0.00000E+000	10	...........
	1188	47.56	-2.24050E-001	-8.11594E-004	0.00000E+000	-2.23992E-001	0.00000E+000	10	...........
	1192	47.72	-2.16027E-001	-7.95549E-004	0.00000E+000	-2.15988E-001	0.00000E+000	9	...........
	1196	47.88	-2.08030E-001	-7.76765E-004	0.00000E+000	-2.07984E-001	0.00000E+000	9	...........
	1200	48.04	-2.00015E-001	-7.56138E-004	0.00000E+000	-1.99980E-001	0.00000E+000	9	...........
	1204	48.2	-1.91996E-001	-7.34329E-004	0.00000E+000	-1.91976E-001	0.00000E+000	9	...........
	1208	48.36	-1.84069E-001	-7.12254E-004	0.00000E+000	-1.84022E-001	0.00000E+000	9	...........
	1212	48.52	-1.76047E-001	-6.87265E-004	0.00000E+000	-1.76018E-001	0.00000E+000	9	...........
	1216	48.68	-1.68050E-001	-6.62595E-004	0.00000E+000	-1.68013E-001	0.00000E+000	9	...........
	1220	48.84	-1.60033E-001	-6.35948E-004	0.00000E+000	-1.60009E-001	0.00000E+000	9	...........
	1224	49	-1.52017E-001	-6.08209E-004	0.00000E+000	-1.52005E-001	0.00000E+000	9	...........
	1228	49.16	-1.44045E-001	-5.80622E-004	0.00000E+000	-1.44001E-001	0.00000E+000	9	...........
	1232	49.32	-1.36023E-001	-5.51360E-004	0.00000E+000	-1.35997E-001	0.00000E+000	9	...........
	1236	49.48	-1.28035E-001	-5.22614E-004	0.00000E+000	-1.27993E-001	0.00000E+000	9	...........
	1240	49.64	-1.20016E-001	-4.92687E-004	0.00000E+000	-1.19989E-001	0.00000E+000	9	...........
	1244	49.8	-1.12015E-001	-4.62759E-004	0.00000E+000	-1.11985E-001	0.00000E+000	9	...........
	1248	49.96	-1.04043E-001	-4.32779E-004	0.00000E+000	-1.03981E-001	0.00000E+000	9	...........
	1252	50.12	-9.60306E-002	-4.01868E-004	0.00000E+000	-9.59766E-002	0.00000E+000	9	...........
	1256	50.28	-8.80725E-002	-3.72067E-004	0.00000E+000	-8.80225E-002	0.00000E+000	9	...........
	1260	50.44	-8.00692E-002	-3.40637E-004	0.00000E+000	-8.00184E-002	0.00000E+000	9	...........
	1264	50.6	-7.20525E-002	-3.09462E-004	0.00000E+000	-7.20143E-002	0.00000E+000	9	...........
	1268	50.76	-6.40729E-002	-2.78634E-004	0.00000E+000	-6.40102E-002	0.00000E+000	9	...........
	1272	50.92	-5.60547E-002	-2.46820E-004	0.00000E+000	-5.60061E-002	0.00000E+000	9	...........
	1276	51.08	-4.80301E-002	-2.16245E-004	0.00000E+000	-4.80020E-002	0.00000E+000	9	...........
	1280	51.24	-4.00466E-002	-1.84964E-004	0.00000E+000	-3.99979E-002	0.00000E+000	9	...........
	1284	51.4	-3.20326E-002	-1.54516E-004	0.00000E+000	-3.19938E-002	0.00000E+000	9	...........
	1288	51.56	-2.40063E-002	-1.25062E-004	0.00000E+000	-2.39897E-002	0.00000E+000	9	...........
	1292	51.72	-1.60269E-002	-9.53101E-005	0.00000E+000	-1.59856E-002	0.00000E+000	9	...........
	1296	51.88	-8.00626E-003	-6.74878E-005	0.00000E+000	-7.98152E-003	0.00000E+000	8	...........
	1300	52.04	4.60792E-006	-3.99031E-005	0.00000E+000	2.25753E-005	0.00000E+000	8	...........
	1304	52.2	8.00003E-003	-1.39375E-005	0.00000E+000	8.02667E-003	0.00000E+000	8	...........
	1308	52.36	1.59761E-002	9.34698E-006	0.00000E+000	1.59808E-002	0.00000E+000	7	....ih..i..
	1312	52.52	2.39561E-002	3.40903E-005	0.00000E+000	2.39848E-002	0.00000E+000	8	...........
	1316	52.68	3.19563E-002	5.52160E-005	0.00000E+000	3.19889E-002	0.00000E+000	8	...........
	1320	52.84	3.99717E-002	7.62831E-005	0.00000E+000	3.99930E-002	0.00000E+000	8	...........
	1324	53	4.79665E-002	9.46260E-005	0.00000E+000	4.79971E-002	0.00000E+000	9	...........
	1328	53.16	5.59776E-002	1.12046E-004	0.00000E+000	5.60012E-002	0.00000E+000	9	...........
	1332	53.32	6.39722E-002	1.28629E-004	0.00000E+000	6.40053E-002	0.00000E+000	9	...........
	1336	53.48	7.19831E-002	1.42669E-004	0.00000E+000	7.20094E-002	0.00000E+000	9	...........
	1340	53.64	7.99966E-002	1.56467E-004	0.00000E+000	8.00135E-002	0.00000E+000	9	...........
	1344	53.8	8.80071E-002	1.68266E-004	0.00000E+000	8.80176E-002	0.00000E+000	9	...........
	1348	53.96	9.59869E-002	1.79022E-004	0.00000E+000	9.60217E-002	0.00000E+000	9	...........
	1352	54.12	1.04016E-001	1.89243E-004	0.00000E+000	1.04026E-001	0.00000E+000	9	...........
	1356	54.28	1.11947E-001	1.96855E-004	0.00000E+000	1.11980E-001	0.00000E+000	9	...........
	1360	54.44	1.19959E-001	2.04602E-004	0.00000E+000	1.19984E-001	0.00000E+000	9	...........
	1364	54.6	1.27973E-001	2.09860E-004	0.00000E+000	1.27988E-001	0.00000E+000	9	...........
	1368	54.76	1.35969E-001	2.13852E-004	0.00000E+000	1.35992E-001	0.00000E+000	9	...........
	1372	54.92	1.43975E-001	2.18105E-004	0.00000E+000	1.43996E-001	0.00000E+000	9	...........
	1376	55.08	1.51962E-001	2.20490E-004	0.00000E+000	1.52000E-001	0.00000E+000	9	...........
	1380	55.24	1.59992E-001	2.22646E-004	0.00000E+000	1.60005E-001	0.00000E+000	9	...........
	1384	55.4	1.68011E-001	2.24070E-004	0.00000E+000	1.68009E-001	0.00000E+000	9	...........
	1388	55.56	1.76006E-001	2.24672E-004	0.00000E+000	1.76013E-001	0.00000E+000	9	...........
	1392	55.72	1.84024E-001	2.25849E-004	0.00000E+000	1.84017E-001	0.00000E+000	9	...........
	1396	55.88	1.92011E-001	2.25604E-004	0.00000E+000	1.92021E-001	0.00000E+000	9	...........
	1400	56.04	2.00026E-001	2.26077E-004	0.00000E+000	2.00025E-001	0.00000E+000	9	...........
	1404	56.2	2.07982E-001	2.25496E-004	0.00000E+000	2.07979E-001	0.00000E+000	9	...........
	1408	56.36	2.15976E-001	2.25110E-004	0.00000E+000	2.15983E-001	0.00000E+000	9	...........
	1412	56.52	2.23984E-001	2.25187E-004	0.00000E+000	2.23987E-001	0.00000E+000	9	...........
	1416	56.68	2.32011E-001	2.24489E-004	0.00000E+000	2.31991E-001	0.00000E+000	9	...........
	1420	56.84	2.39991E-001	2.24243E-004	0.00000E+000	2.39995E-001	0.00000E+000	9	...........
	1424	57	2.47999E-001	2.23824E-004	0.00000E+000	2.48000E-001	0.00000E+000	9	...........
	1428	57.16	2.56002E-001	2.23173E-004	0.00000E+000	2.56004E-001	0.00000E+000	9	...........
[...]
	18489	739.6	2.19789E-002	-2.49090E-004	0.00000E+000	2.19838E-002	0.00000E+000	9	...........
	18491	739.68	1.79694E-002	-2.58853E-004	0.00000E+000	1.79818E-002	0.00000E+000	9	...........
	18493	739.76	1.39750E-002	-2.69553E-004	0.00000E+000	1.39797E-002	0.00000E+000	9	...........
	18495	739.84	9.96400E-003	-2.80984E-004	0.00000E+000	9.97768E-003	0.00000E+000	9	...........
	18497	739.92	6.02209E-003	-2.92787E-004	0.00000E+000	6.02565E-003	0.00000E+000	9	...........
	18499	740	2.03157E-003	-3.06381E-004	0.00000E+000	2.02360E-003	0.00000E+000	9	...........
	18501	740.08	-2.00504E-003	-3.21430E-004	0.00000E+000	-1.97845E-003	0.00000E+000	9	...........
	18503	740.16	-5.99327E-003	-3.38085E-004	0.00000E+000	-5.98050E-003	0.00000E+000	9	...........
	18505	740.24	-9.98337E-003	-3.55786E-004	0.00000E+000	-9.98255E-003	0.00000E+000	9	...........
	18507	740.32	-1.40010E-002	-3.74944E-004	0.00000E+000	-1.39846E-002	0.00000E+000	9	...........
	18509	740.4	-1.80109E-002	-3.95388E-004	0.00000E+000	-1.79866E-002	0.00000E+000	9	...........
	18511	740.48	-2.19898E-002	-4.18565E-004	0.00000E+000	-2.19887E-002	0.00000E+000	9	...........
	18513	740.56	-2.60205E-002	-4.43625E-004	0.00000E+000	-2.59908E-002	0.00000E+000	9	...........
	18515	740.64	-3.00023E-002	-4.70519E-004	0.00000E+000	-2.99928E-002	0.00000E+000	9	...........
	18517	740.72	-3.40107E-002	-4.99597E-004	0.00000E+000	-3.39949E-002	0.00000E+000	9	...........
	18519	740.8	-3.80088E-002	-5.31169E-004	0.00000E+000	-3.79969E-002	0.00000E+000	9	...........
	18521	740.88	-4.20295E-002	-5.65357E-004	0.00000E+000	-4.19990E-002	0.00000E+000	9	...........
	18523	740.96	-4.60090E-002	-6.02643E-004	0.00000E+000	-4.60010E-002	0.00000E+000	9	...........
	18525	741.04	-5.00187E-002	-6.43052E-004	0.00000E+000	-5.00031E-002	0.00000E+000	9	...........
	18527	741.12	-5.40347E-002	-6.86301E-004	0.00000E+000	-5.40051E-002	0.00000E+000	9	...........
	18529	741.2	-5.80406E-002	-7.32758E-004	0.00000E+000	-5.80072E-002	0.00000E+000	9	...........
	18531	741.28	-6.20318E-002	-7.83140E-004	0.00000E+000	-6.20092E-002	0.00000E+000	9	...........
	18533	741.36	-6.60358E-002	-8.37085E-004	0.00000E+000	-6.60113E-002	0.00000E+000	9	...........
	18535	741.44	-7.00353E-002	-8.94375E-004	0.00000E+000	-7.00133E-002	0.00000E+000	9	...........
	18537	741.52	-7.40415E-002	-9.53455E-004	0.00000E+000	-7.40153E-002	0.00000E+000	10	...........
	18539	741.6	-7.80733E-002	-1.01792E-003	0.00000E+000	-7.80174E-002	0.00000E+000	10	...........
	18541	741.68	-8.20649E-002	-1.08649E-003	0.00000E+000	-8.20194E-002	0.00000E+000	10	...........
	18543	741.76	-8.60416E-002	-1.15917E-003	0.00000E+000	-8.60215E-002	0.00000E+000	10	...........
	18545	741.84	-9.00190E-002	-1.23360E-003	0.00000E+000	-8.99735E-002	0.00000E+000	10	...........
	18547	741.92	-9.40270E-002	-1.31318E-003	0.00000E+000	-9.39756E-002	0.00000E+000	10	...........
	18549	742	-9.80117E-002	-1.39544E-003	0.00000E+000	-9.79776E-002	0.00000E+000	10	...........
	18551	742.08	-1.02027E-001	-1.48096E-003	0.00000E+000	-1.01980E-001	0.00000E+000	10	...........
	18553	742.16	-1.06015E-001	-1.56923E-003	0.00000E+000	-1.05982E-001	0.00000E+000	10	...........
	18555	742.24	-1.10018E-001	-1.66006E-003	0.00000E+000	-1.09984E-001	0.00000E+000	10	...........
	18557	742.32	-1.14009E-001	-1.75210E-003	0.00000E+000	-1.13986E-001	0.00000E+000	10	...........
	18559	742.4	-1.18018E-001	-1.84582E-003	0.00000E+000	-1.17988E-001	0.00000E+000	10	...........
	18561	742.48	-1.22019E-001	-1.93980E-003	0.00000E+000	-1.21990E-001	0.00000E+000	10	...........
	18563	742.56	-1.26005E-001	-2.03369E-003	0.00000E+000	-1.25992E-001	0.00000E+000	10	...........
	18565	742.64	-1.30033E-001	-2.12657E-003	0.00000E+000	-1.29994E-001	0.00000E+000	10	...........
	18567	742.72	-1.34022E-001	-2.21791E-003	0.00000E+000	-1.33996E-001	0.00000E+000	10	...........
	18569	742.8	-1.38018E-001	-2.30682E-003	0.00000E+000	-1.37998E-001	0.00000E+000	10	...........
	18571	742.88	-1.42033E-001	-2.39326E-003	0.00000E+000	-1.42000E-001	0.00000E+000	10	...........
	18573	742.96	-1.46021E-001	-2.47597E-003	0.00000E+000	-1.46002E-001	0.00000E+000	10	...........
	18575	743.04	-1.50022E-001	-2.55142E-003	0.00000E+000	-1.50004E-001	0.00000E+000	10	...........
	18577	743.12	-1.54055E-001	-2.62341E-003	0.00000E+000	-1.54006E-001	0.00000E+000	10	...........
	18579	743.2	-1.58054E-001	-2.68880E-003	0.00000E+000	-1.58008E-001	0.00000E+000	10	...........
	18581	743.28	-1.62047E-001	-2.74744E-003	0.00000E+000	-1.62010E-001	0.00000E+000	10	...........
	18583	743.36	-1.66032E-001	-2.79863E-003	0.00000E+000	-1.66012E-001	0.00000E+000	10	...........
	18585	743.44	-1.70055E-001	-2.84330E-003	0.00000E+000	-1.70015E-001	0.00000E+000	10	...........
	18587	743.52	-1.74044E-001	-2.87895E-003	0.00000E+000	-1.74017E-001	0.00000E+000	10	...........
	18589	743.6	-1.78035E-001	-2.90699E-003	0.00000E+000	-1.78019E-001	0.00000E+000	10	...........
	18591	743.68	-1.82049E-001	-2.92704E-003	0.00000E+000	-1.82021E-001	0.00000E+000	10	...........
	18593	743.76	-1.86049E-001	-2.93866E-003	0.00000E+000	-1.86023E-001	0.00000E+000	10	...........
	18595	743.84	-1.90011E-001	-2.94132E-003	0.00000E+000	-1.89975E-001	0.00000E+000	10	...........
	18597	743.92	-1.94017E-001	-2.93805E-003	0.00000E+000	-1.93977E-001	0.00000E+000	10	...........
	18599	744	-1.98014E-001	-2.92703E-003	0.00000E+000	-1.97979E-001	0.00000E+000	10	...........
	18601	744.08	-2.02005E-001	-2.90989E-003	0.00000E+000	-2.01981E-001	0.00000E+000	10	...........
	18603	744.16	-2.06026E-001	-2.88762E-003	0.00000E+000	-2.05983E-001	0.00000E+000	10	...........
	18605	744.24	-2.10013E-001	-2.85938E-003	0.00000E+000	-2.09985E-001	0.00000E+000	10	...........
	18607	744.32	-2.14020E-001	-2.82697E-003	0.00000E+000	-2.13987E-001	0.00000E+000	10	...........
	18609	744.4	-2.18040E-001	-2.79065E-003	0.00000E+000	-2.17989E-001	0.00000E+000	10	...........
	18611	744.48	-2.22020E-001	-2.75174E-003	0.00000E+000	-2.21991E-001	0.00000E+000	10	...........
	18613	744.56	-2.26022E-001	-2.71113E-003	0.00000E+000	-2.25993E-001	0.00000E+000	10	...........
	18615	744.64	-2.30027E-001	-2.66876E-003	0.00000E+000	-2.29995E-001	0.00000E+000	10	...........
	18617	744.72	-2.34046E-001	-2.62494E-003	0.00000E+000	-2.33997E-001	0.00000E+000	10	...........
	18619	744.8	-2.38042E-001	-2.58058E-003	0.00000E+000	-2.37999E-001	0.00000E+000	10	...........
	18621	744.88	-2.42033E-001	-2.53716E-003	0.00000E+000	-2.42001E-001	0.00000E+000	10	...........
	18623	744.96	-2.46060E-001	-2.49422E-003	0.00000E+000	-2.46003E-001	0.00000E+000	10	...........
	18625	745.04	-2.50059E-001	-2.45180E-003	0.00000E+000	-2.50005E-001	0.00000E+000	10	...........
	18627	745.12	-2.54047E-001	-2.41009E-003	0.00000E+000	-2.54008E-001	0.00000E+000	10	...........
	18629	745.2	-2.58077E-001	-2.36955E-003	0.00000E+000	-2.58010E-001	0.00000E+000	10	...........
	18631	745.28	-2.62065E-001	-2.33085E-003	0.00000E+000	-2.62012E-001	0.00000E+000	10	...........
	18633	745.36	-2.66064E-001	-2.29381E-003	0.00000E+000	-2.66014E-001	0.00000E+000	10	...........
	18635	745.44	-2.70066E-001	-2.25768E-003	0.00000E+000	-2.70016E-001	0.00000E+000	10	...........
	18637	745.52	-2.74068E-001	-2.22269E-003	0.00000E+000	-2.74018E-001	0.00000E+000	10	...........
	18639	745.6	-2.78061E-001	-2.18933E-003	0.00000E+000	-2.78020E-001	0.00000E+000	10	...........
	18641	745.68	-2.82093E-001	-2.15808E-003	0.00000E+000	-2.82022E-001	0.00000E+000	10	...........
	18643	745.76	-2.86027E-001	-2.12761E-003	0.00000E+000	-2.85974E-001	0.00000E+000	10	...........
	18645	745.84	-2.90026E-001	-2.09882E-003	0.00000E+000	-2.89976E-001	0.00000E+000	10	...........
	18647	745.92	-2.94027E-001	-2.07126E-003	0.00000E+000	-2.93978E-001	0.00000E+000	10	...........
	18649	746	-2.98033E-001	-2.04475E-003	0.00000E+000	-2.97980E-001	0.00000E+000	10	...........
	18651	746.08	-3.02030E-001	-2.02013E-003	0.00000E+000	-3.01982E-001	0.00000E+000	10	...........
	18653	746.16	-3.06025E-001	-1.99670E-003	0.00000E+000	-3.05984E-001	0.00000E+000	10	...........
	18655	746.24	-3.10036E-001	-1.97357E-003	0.00000E+000	-3.09986E-001	0.00000E+000	10	...........
	18657	746.32	-3.14039E-001	-1.95141E-003	0.00000E+000	-3.13988E-001	0.00000E+000	10	...........
	18659	746.4	-3.18027E-001	-1.93077E-003	0.00000E+000	-3.17990E-001	0.00000E+000	10	...........
	18661	746.48	-3.22038E-001	-1.91137E-003	0.00000E+000	-3.21992E-001	0.00000E+000	10	...........
	18663	746.56	-3.26040E-001	-1.89215E-003	0.00000E+000	-3.25994E-001	0.00000E+000	10	...........
	18665	746.64	-3.30045E-001	-1.87400E-003	0.00000E+000	-3.29996E-001	0.00000E+000	10	...........
	18667	746.72	-3.34060E-001	-1.85599E-003	0.00000E+000	-3.33999E-001	0.00000E+000	10	...........
	18669	746.8	-3.38047E-001	-1.83917E-003	0.00000E+000	-3.38001E-001	0.00000E+000	10	...........
	18671	746.88	-3.42042E-001	-1.82306E-003	0.00000E+000	-3.42003E-001	0.00000E+000	10	...........
	18673	746.96	-3.46060E-001	-1.80781E-003	0.00000E+000	-3.46005E-001	0.00000E+000	10	...........
	18675	747.04	-3.50052E-001	-1.79260E-003	0.00000E+000	-3.50007E-001	0.00000E+000	10	...........
	18677	747.12	-3.54048E-001	-1.77789E-003	0.00000E+000	-3.54009E-001	0.00000E+000	10	...........
	18679	747.2	-3.58042E-001	-1.76341E-003	0.00000E+000	-3.58011E-001	0.00000E+000	10	...........
	18681	747.28	-3.62075E-001	-1.74968E-003	0.00000E+000	-3.62013E-001	0.00000E+000	10	...........
	18683	747.36	-3.66062E-001	-1.73636E-003	0.00000E+000	-3.66015E-001	0.00000E+000	10	...........
	18685	747.44	-3.70067E-001	-1.72336E-003	0.00000E+000	-3.70017E-001	0.00000E+000	10	...........
	18687	747.52	-3.74089E-001	-1.71042E-003	0.00000E+000	-3.74019E-001	0.00000E+000	10	...........
	18689	747.6	-3.78080E-001	-1.69745E-003	0.00000E+000	-3.78021E-001	0.00000E+000	10	...........
	18691	747.68	-3.82012E-001	-1.68485E-003	0.00000E+000	-3.81973E-001	0.00000E+000	10	...........
	18693	747.76	-3.86042E-001	-1.67314E-003	0.00000E+000	-3.85975E-001	0.00000E+000	10	...........
	18695	747.84	-3.90032E-001	-1.66165E-003	0.00000E+000	-3.89977E-001	0.00000E+000	10	...........
	18697	747.92	-3.94035E-001	-1.65024E-003	0.00000E+000	-3.93979E-001	0.00000E+000	10	...........
	18699	748	-3.98042E-001	-1.63870E-003	0.00000E+000	-3.97981E-001	0.00000E+000	10	...........
	18701	748.08	-4.02029E-001	-1.62803E-003	0.00000E+000	-4.01983E-001	0.00000E+000	10	...........
	18703	748.16	-4.06029E-001	-1.61820E-003	0.00000E+000	-4.05985E-001	0.00000E+000	10	...........
	18705	748.24	-4.10054E-001	-1.60837E-003	0.00000E+000	-4.09987E-001	0.00000E+000	10	...........
	18707	748.32	-4.14043E-001	-1.59802E-003	0.00000E+000	-4.13989E-001	0.00000E+000	10	...........
	18709	748.4	-4.18038E-001	-1.58836E-003	0.00000E+000	-4.17992E-001	0.00000E+000	10	...........
	18711	748.48	-4.22038E-001	-1.57940E-003	0.00000E+000	-4.21994E-001	0.00000E+000	10	...........
	18713	748.56	-4.26052E-001	-1.57101E-003	0.00000E+000	-4.25996E-001	0.00000E+000	10	...........
	18715	748.64	-4.30054E-001	-1.56303E-003	0.00000E+000	-4.29998E-001	0.00000E+000	10	...........
	18717	748.72	-4.34024E-001	-1.55460E-003	0.00000E+000	-4.34000E-001	0.00000E+000	10	...........
	18719	748.8	-4.38064E-001	-1.54620E-003	0.00000E+000	-4.38002E-001	0.00000E+000	10	...........
	18721	748.88	-4.42062E-001	-1.53902E-003	0.00000E+000	-4.42004E-001	0.00000E+000	10	...........
	18723	748.96	-4.46062E-001	-1.53208E-003	0.00000E+000	-4.46006E-001	0.00000E+000	10	...........
	18725	749.04	-4.50073E-001	-1.52492E-003	0.00000E+000	-4.50008E-001	0.00000E+000	10	...........
	18727	749.12	-4.54066E-001	-1.51771E-003	0.00000E+000	-4.54010E-001	0.00000E+000	10	...........
	18729	749.2	-4.58060E-001	-1.51092E-003	0.00000E+000	-4.58012E-001	0.00000E+000	10	...........
	18731	749.28	-4.62091E-001	-1.50517E-003	0.00000E+000	-4.62014E-001	0.00000E+000	10	...........
	18733	749.36	-4.66085E-001	-1.49943E-003	0.00000E+000	-4.66016E-001	0.00000E+000	10	...........
	18735	749.44	-4.70083E-001	-1.49363E-003	0.00000E+000	-4.70018E-001	0.00000E+000	10	...........
	18737	749.52	-4.74089E-001	-1.48751E-003	0.00000E+000	-4.74020E-001	0.00000E+000	10	...........
	18739	749.6	-4.78036E-001	-1.48155E-003	0.00000E+000	-4.77972E-001	0.00000E+000	10	...........
	18741	749.68	-4.82041E-001	-1.47682E-003	0.00000E+000	-4.81974E-001	0.00000E+000	10	...........
	18743	749.76	-4.86031E-001	-1.47214E-003	0.00000E+000	-4.85976E-001	0.00000E+000	10	...........
	18745	749.84	-4.90058E-001	-1.46738E-003	0.00000E+000	-4.89978E-001	0.00000E+000	10	...........
	18747	749.92	-4.94052E-001	-1.46232E-003	0.00000E+000	-4.93980E-001	0.00000E+000	10	...........
	18749	750	-4.98040E-001	-1.45783E-003	0.00000E+000	-4.97982E-001	0.00000E+000	10	...........
	18751	750.08	-5.02046E-001	-1.45407E-003	0.00000E+000	-5.01985E-001	0.00000E+000	10	...........
	18753	750.16	-5.06051E-001	-1.45113E-003	0.00000E+000	-5.05987E-001	0.00000E+000	10	...........
	18755	750.24	-5.10056E-001	-1.44754E-003	0.00000E+000	-5.09989E-001	0.00000E+000	10	...........
	18757	750.32	-5.14081E-001	-1.44410E-003	0.00000E+000	-5.13991E-001	0.00000E+000	10	...........
	18759	750.4	-5.18041E-001	-1.44078E-003	0.00000E+000	-5.17993E-001	0.00000E+000	10	...........
	18761	750.48	-5.22041E-001	-1.43815E-003	0.00000E+000	-5.21995E-001	0.00000E+000	10	...........
	18763	750.56	-5.26057E-001	-1.43598E-003	0.00000E+000	-5.25997E-001	0.00000E+000	10	...........
	18765	750.64	-5.30048E-001	-1.43342E-003	0.00000E+000	-5.29999E-001	0.00000E+000	10	...........
	18767	750.72	-5.34046E-001	-1.43097E-003	0.00000E+000	-5.34001E-001	0.00000E+000	10	...........
	18769	750.8	-5.38057E-001	-1.42926E-003	0.00000E+000	-5.38003E-001	0.00000E+000	10	...........
	18771	750.88	-5.42063E-001	-1.42777E-003	0.00000E+000	-5.42005E-001	0.00000E+000	10	...........
	18773	750.96	-5.46062E-001	-1.42689E-003	0.00000E+000	-5.46007E-001	0.00000E+000	10	...........
	18775	751.04	-5.50056E-001	-1.42587E-003	0.00000E+000	-5.50009E-001	0.00000E+000	10	...........
	18777	751.12	-5.54067E-001	-1.42439E-003	0.00000E+000	-5.54011E-001	0.00000E+000	10	...........
	18779	751.2	-5.58062E-001	-1.42389E-003	0.00000E+000	-5.58013E-001	0.00000E+000	10	...........
	18781	751.28	-5.62055E-001	-1.42443E-003	0.00000E+000	-5.62015E-001	0.00000E+000	10	...........
	18783	751.36	-5.66088E-001	-1.42492E-003	0.00000E+000	-5.66017E-001	0.00000E+000	10	...........
	18785	751.44	-5.70080E-001	-1.42564E-003	0.00000E+000	-5.70019E-001	0.00000E+000	10	...........
	18787	751.52	-5.74073E-001	-1.42679E-003	0.00000E+000	-5.74021E-001	0.00000E+000	10	...........
	18789	751.6	-5.78025E-001	-1.42731E-003	0.00000E+000	-5.77973E-001	0.00000E+000	10	...........
	18791	751.68	-5.82031E-001	-1.43123E-003	0.00000E+000	-5.81975E-001	0.00000E+000	10	...........
	18793	751.76	-5.86021E-001	-1.43433E-003	0.00000E+000	-5.85978E-001	0.00000E+000	10	...........
	18795	751.84	-5.90050E-001	-1.43682E-003	0.00000E+000	-5.89980E-001	0.00000E+000	10	...........
	18797	751.92	-5.94033E-001	-1.43939E-003	0.00000E+000	-5.93982E-001	0.00000E+000	10	...........
	18799	752	-5.98031E-001	-1.44334E-003	0.00000E+000	-5.97984E-001	0.00000E+000	10	...........
	18801	752.08	-6.02035E-001	-1.44841E-003	0.00000E+000	-6.01986E-001	0.00000E+000	10	...........
	18803	752.16	-6.06052E-001	-1.45192E-003	0.00000E+000	-6.05988E-001	0.00000E+000	10	...........
	18805	752.24	-6.10059E-001	-1.45619E-003	0.00000E+000	-6.09990E-001	0.00000E+000	10	...........
	18807	752.32	-6.14044E-001	-1.45874E-003	0.00000E+000	-6.13992E-001	0.00000E+000	10	...........
	18809	752.4	-6.18067E-001	-1.46202E-003	0.00000E+000	-6.17994E-001	0.00000E+000	10	...........
	18811	752.48	-6.22064E-001	-1.46574E-003	0.00000E+000	-6.21996E-001	0.00000E+000	10	...........
	18813	752.56	-6.26064E-001	-1.46808E-003	0.00000E+000	-6.25998E-001	0.00000E+000	10	...........
	18815	752.64	-6.30086E-001	-1.47093E-003	0.00000E+000	-6.30000E-001	0.00000E+000	10	...........
	18817	752.72	-6.34069E-001	-1.47234E-003	0.00000E+000	-6.34002E-001	0.00000E+000	10	...........
	18819	752.8	-6.38052E-001	-1.47324E-003	0.00000E+000	-6.38004E-001	0.00000E+000	10	...........
	18821	752.88	-6.42076E-001	-1.47460E-003	0.00000E+000	-6.42006E-001	0.00000E+000	10	...........
	18823	752.96	-6.46077E-001	-1.47659E-003	0.00000E+000	-6.46008E-001	0.00000E+000	10	...........
	18825	753.04	-6.50067E-001	-1.47520E-003	0.00000E+000	-6.50010E-001	0.00000E+000	10	...........
	18827	753.12	-6.54091E-001	-1.47532E-003	0.00000E+000	-6.54012E-001	0.00000E+000	10	...........
	18829	753.2	-6.58076E-001	-1.47495E-003	0.00000E+000	-6.58014E-001	0.00000E+000	10	...........
	18831	753.28	-6.62084E-001	-1.47493E-003	0.00000E+000	-6.62016E-001	0.00000E+000	10	...........
	18833	753.36	-6.66081E-001	-1.47346E-003	0.00000E+000	-6.66019E-001	0.00000E+000	10	...........
	18835	753.44	-6.70108E-001	-1.47143E-003	0.00000E+000	-6.70021E-001	0.00000E+000	10	...........
	18837	753.52	-6.74063E-001	-1.46724E-003	0.00000E+000	-6.73973E-001	0.00000E+000	10	...........
	18839	753.6	-6.78050E-001	-1.46550E-003	0.00000E+000	-6.77975E-001	0.00000E+000	10	...........
	18841	753.68	-6.82056E-001	-1.46376E-003	0.00000E+000	-6.81977E-001	0.00000E+000	10	...........
	18843	753.76	-6.86065E-001	-1.45960E-003	0.00000E+000	-6.85979E-001	0.00000E+000	10	...........
	18845	753.84	-6.90044E-001	-1.45548E-003	0.00000E+000	-6.89981E-001	0.00000E+000	10	...........
	18847	753.92	-6.94076E-001	-1.45008E-003	0.00000E+000	-6.93983E-001	0.00000E+000	10	...........
	18849	754	-6.98059E-001	-1.44515E-003	0.00000E+000	-6.97985E-001	0.00000E+000	10	...........
	18851	754.08	-7.02059E-001	-1.43872E-003	0.00000E+000	-7.01987E-001	0.00000E+000	10	...........
	18853	754.16	-7.06073E-001	-1.43377E-003	0.00000E+000	-7.05989E-001	0.00000E+000	10	...........
	18855	754.24	-7.10073E-001	-1.42564E-003	0.00000E+000	-7.09991E-001	0.00000E+000	10	...........
	18857	754.32	-7.14060E-001	-1.41609E-003	0.00000E+000	-7.13993E-001	0.00000E+000	10	...........
	18859	754.4	-7.18091E-001	-1.40838E-003	0.00000E+000	-7.17995E-001	0.00000E+000	10	...........
	18861	754.48	-7.22066E-001	-1.39905E-003	0.00000E+000	-7.21997E-001	0.00000E+000	10	...........
	18863	754.56	-7.26064E-001	-1.38844E-003	0.00000E+000	-7.25999E-001	0.00000E+000	10	...........
	18865	754.64	-7.30068E-001	-1.37908E-003	0.00000E+000	-7.30001E-001	0.00000E+000	10	...........
	18867	754.72	-7.34086E-001	-1.36841E-003	0.00000E+000	-7.34003E-001	0.00000E+000	10	...........
	18869	754.8	-7.38079E-001	-1.35780E-003	0.00000E+000	-7.38005E-001	0.00000E+000	10	...........
	18871	754.88	-7.42071E-001	-1.34823E-003	0.00000E+000	-7.42007E-001	0.00000E+000	10	...........
	18873	754.96	-7.46086E-001	-1.33815E-003	0.00000E+000	-7.46009E-001	0.00000E+000	10	...........
	18875	755.04	-7.50100E-001	-1.32748E-003	0.00000E+000	-7.50012E-001	0.00000E+000	10	...........
	18877	755.12	-7.54090E-001	-1.31778E-003	0.00000E+000	-7.54014E-001	0.00000E+000	10	...........
	18879	755.2	-7.58099E-001	-1.30885E-003	0.00000E+000	-7.58016E-001	0.00000E+000	10	...........
	18881	755.28	-7.62105E-001	-1.30168E-003	0.00000E+000	-7.62018E-001	0.00000E+000	10	...........
	18883	755.36	-7.66087E-001	-1.29359E-003	0.00000E+000	-7.66020E-001	0.00000E+000	10	...........
	18885	755.44	-7.70081E-001	-1.28675E-003	0.00000E+000	-7.69972E-001	0.00000E+000	10	...........
	18887	755.52	-7.74073E-001	-1.28192E-003	0.00000E+000	-7.73974E-001	0.00000E+000	10	...........
	18889	755.6	-7.78070E-001	-1.27832E-003	0.00000E+000	-7.77976E-001	0.00000E+000	10	...........
	18891	755.68	-7.82064E-001	-1.27733E-003	0.00000E+000	-7.81978E-001	0.00000E+000	10	...........
	18893	755.76	-7.86072E-001	-1.27869E-003	0.00000E+000	-7.85980E-001	0.00000E+000	10	...........
	18895	755.84	-7.90071E-001	-1.28182E-003	0.00000E+000	-7.89982E-001	0.00000E+000	10	...........
	18897	755.92	-7.94048E-001	-1.28920E-003	0.00000E+000	-7.93984E-001	0.00000E+000	10	...........
	18899	756	-7.98071E-001	-1.29959E-003	0.00000E+000	-7.97986E-001	0.00000E+000	10	...........
	18900	756.04	-8.00069E-001	-1.30740E-003	0.00000E+000	-7.99987E-001	0.00000E+000	10	...........